artifacts,filtered_keys,text_code,text_key,bad_text,tot_ev,corr_ev,numpad_ev,shift_cpslck_ev,type_time,dwelltime_mean,dwelltime_median,dwelltime_sd,latency_mean,latency_median,latency_sd,down_down_mean,down_down_median,down_down_sd,up_up_mean,up_up_median,up_up_sd,no_key_pushed,num_trials,arousal,valence,ID,d_col_ID,time,finished,age,nationality,occupation,sex,os,app_version,num_data_colls,corrected_key_events
0,0,"['ShiftLeft', 'KeyB', 'KeyA', 'KeyL', 'KeyL', 'ShiftLeft', 'KeyO', 'KeyR', 'KeyA', 'KeyN', 'KeyG', 'KeyE', 'Digit3', 'Digit8', 'Digit2', 'Digit9', 'ShiftLeft', 'Digit1', 'Enter']","['Shift', 'b', 'a', 'l', 'l', 'Shift', 'o', 'r', 'a', 'n', 'g', 'e', '3', '8', '2', '9', 'Shift', '1', 'Enter']",['1'],19.0,0.0,0.0,3.0,6.839,137.421,121.0,44.533,234.889,109.5,339.842,373.444,222.5,327.794,367.611,239.5,334.519,65.726,1,75,55,1Yr01bphWNORcb1H1Tv54d2K6HT2,-Mpm_Wv-r-2OPqWnzeX4,1638304981287,True,1,Deutsch,1,0,win32,KeyboardStudy_de,99,0.0
0,0,"['ControlLeft', 'KeyB', 'KeyA', 'KeyL', 'KeyL', 'ShiftLeft', 'KeyO', 'KeyR', 'KeyA', 'KeyN', 'KeyG', 'KeyE', 'Digit3', 'Digit8', 'Digit2', 'Digit9', 'ShiftLeft', 'Digit1', 'Enter', 'ShiftLeft', 'KeyB', 'KeyA', 'KeyL', 'KeyL', 'ShiftLeft', 'KeyO', 'KeyR', 'KeyA', 'KeyN', 'KeyG', 'KeyE', 'Digit3', 'Digit8', 'Digit2', 'Digit9', 'ShiftLeft', 'Digit1', 'Enter']","['Control', 'b', 'a', 'l', 'l', 'Shift', 'o', 'r', 'a', 'n', 'g', 'e', '3', '8', '2', '9', 'Shift', '1', 'Enter', 'Shift', 'b', 'a', 'l', 'l', 'Shift', 'o', 'r', 'a', 'n', 'g', 'e', '3', '8', '2', '9', 'Shift', '1', 'Enter']","['Control', '1', '1']",38.0,0.0,0.0,5.0,17.005,183.474,181.5,81.734,271.162,60.0,565.956,451.973,226.0,559.799,451.189,213.0,594.462,62.999,2,69,41,1Yr01bphWNORcb1H1Tv54d2K6HT2,-MpmnPK-2UHF0RXtVmfC,1638308620166,True,1,Deutsch,1,0,win32,KeyboardStudy_de,99,0.0
0,0,"['ShiftLeft', 'KeyB', 'KeyA', 'KeyL', 'KeyL', 'ShiftLeft', 'KeyO', 'Backspace', 'ShiftLeft', 'KeyO', 'KeyR', 'KeyA', 'KeyN', 'KeyG', 'KeyE', 'Digit3', 'Digit8', 'Digit2', 'Digit9', 'ShiftLeft', 'Digit1', 'Enter']","['Shift', 'b', 'a', 'l', 'l', 'Shift', 'o', 'Backspace', 'Shift', 'o', 'r', 'a', 'n', 'g', 'e', '3', '8', '2', '9', 'Shift', '1', 'Enter']",['1'],22.0,1.0,0.0,4.0,12.455,218.273,179.0,117.66,364.429,175.0,511.422,584.429,358.0,474.681,567.857,379.0,517.501,65.548,1,81,59,1Yr01bphWNORcb1H1Tv54d2K6HT2,-Mpn2nTe1k3sYNJpaCy5,1638312917464,True,1,Deutsch,1,0,win32,KeyboardStudy_de,99,2.0
0,0,"['ShiftLeft', 'KeyB', 'KeyA', 'KeyL', 'KeyL', 'ShiftLeft', 'KeyO', 'KeyR', 'KeyA', 'KeyN', 'KeyG', 'KeyE', 'Digit3', 'Digit8', 'Digit2', 'Digit9', 'ShiftLeft', 'Digit1', 'Enter']","['Shift', 'b', 'a', 'l', 'l', 'Shift', 'o', 'r', 'a', 'n', 'g', 'e', '3', '8', '2', '9', 'Shift', '1', 'Enter']",['1'],19.0,0.0,0.0,3.0,9.266,184.368,160.0,100.27,320.167,72.0,548.75,505.889,273.5,537.308,502.111,243.0,559.834,66.847,1,81,56,1Yr01bphWNORcb1H1Tv54d2K6HT2,-MpnGdaOM0YfIXhByJSI,1638316546987,True,1,Deutsch,1,0,win32,KeyboardStudy_de,99,0.0
0,0,"['KeyB', 'ShiftLeft', 'KeyA', 'KeyL', 'KeyL', 'ShiftLeft', 'KeyO', 'KeyR', 'KeyA', 'KeyN', 'KeyG', 'KeyE', 'Digit3', 'Digit8', 'Digit2', 'Digit9', 'ShiftLeft', 'Digit1', 'Enter']","['B', 'Shift', 'a', 'l', 'l', 'Shift', 'o', 'r', 'a', 'n', 'g', 'e', '3', '8', '2', '9', 'Shift', '1', 'Enter']",['1'],19.0,0.0,0.0,3.0,8.685,184.421,161.0,74.53,287.833,120.5,465.448,473.611,286.5,446.329,461.278,281.0,471.405,64.928,1,71,57,1Yr01bphWNORcb1H1Tv54d2K6HT2,-MpnUTp2gI4RyyVX2ivt,1638320172858,True,1,Deutsch,1,0,win32,KeyboardStudy_de,99,0.0
0,0,"['KeyB', 'ShiftLeft', 'KeyA', 'KeyL', 'KeyL', 'ShiftLeft', 'KeyO', 'KeyR', 'KeyA', 'KeyN', 'KeyG', 'KeyE', 'Digit3', 'Digit8', 'Digit2', 'Digit9', 'ShiftLeft', 'Digit1', 'Enter']","['B', 'Shift', 'a', 'l', 'l', 'Shift', 'o', 'r', 'a', 'n', 'g', 'e', '3', '8', '2', '9', 'Shift', '1', 'Enter']",['1'],19.0,0.0,0.0,3.0,7.405,178.737,151.0,71.933,222.722,83.5,408.476,403.0,238.0,394.639,393.667,252.0,424.422,59.487,1,71,60,1Yr01bphWNORcb1H1Tv54d2K6HT2,-MppQUU__nqN2FxtaOot,1638352682482,True,1,Deutsch,1,0,win32,KeyboardStudy_de,99,0.0
0,0,"['ShiftLeft', 'KeyB', 'KeyA', 'KeyL', 'KeyL', 'KeyO', 'ShiftLeft', 'KeyR', 'KeyN', 'KeyA', 'KeyG', 'KeyE', 'Digit3', 'Digit8', 'Digit2', 'Digit9', 'ShiftLeft', 'Digit1', 'Enter']","['Shift', 'b', 'a', 'l', 'l', 'O', 'Shift', 'r', 'n', 'a', 'g', 'e', '3', '8', '2', '9', 'Shift', '1', 'Enter']",['1'],19.0,0.0,0.0,3.0,6.426,152.105,129.0,59.749,196.444,69.5,393.231,351.056,208.0,374.579,344.722,232.5,381.334,61.547,1,60,68,1Yr01bphWNORcb1H1Tv54d2K6HT2,-Mppd_ppoHzjkr3qr2Aj,1638356376939,True,1,Deutsch,1,0,win32,KeyboardStudy_de,99,0.0
0,0,"['ShiftLeft', 'KeyB', 'KeyA', 'KeyL', 'KeyL', 'ShiftLeft', 'KeyO', 'KeyR', 'KeyA', 'KeyN', 'KeyG', 'KeyE', 'Digit3', 'Digit8', 'Digit2', 'Digit9', 'ShiftLeft', 'Digit1', 'Enter']","['Shift', 'b', 'a', 'l', 'l', 'Shift', 'o', 'r', 'a', 'n', 'g', 'e', '3', '8', '2', '9', 'Shift', '1', 'Enter']",['1'],19.0,0.0,0.0,3.0,6.627,163.947,153.0,80.479,195.111,71.0,400.305,359.167,223.5,385.215,354.722,228.5,413.691,59.529,1,80,71,1Yr01bphWNORcb1H1Tv54d2K6HT2,-MpprPRhYGHuGcNbDSP9,1638360000258,True,1,Deutsch,1,0,win32,KeyboardStudy_de,99,0.0
0,0,"['ShiftLeft', 'KeyB', 'KeyA', 'KeyL', 'KeyL', 'ShiftLeft', 'KeyO', 'KeyR', 'KeyA', 'KeyN', 'KeyG', 'KeyE', 'Digit2', 'Backspace', 'Digit3', 'Digit8', 'Digit2', 'Digit9', 'ShiftLeft', 'Digit1', 'Enter']","['Shift', 'b', 'a', 'l', 'l', 'Shift', 'o', 'r', 'a', 'n', 'g', 'e', '2', 'Backspace', '3', '8', '2', '9', 'Shift', '1', 'Enter']",['1'],21.0,1.0,0.0,3.0,6.219,172.286,146.0,95.07,130.05,65.0,251.19,306.0,220.5,237.616,296.1,209.5,278.425,50.121,1,77,62,1Yr01bphWNORcb1H1Tv54d2K6HT2,-Mpq4DsXHh4uDBdOf5yG,1638363622878,True,1,Deutsch,1,0,win32,KeyboardStudy_de,99,1.0
0,0,"['KeyB', 'ShiftLeft', 'KeyA', 'KeyL', 'KeyL', 'KeyO', 'ShiftLeft', 'KeyR', 'KeyA', 'KeyN', 'KeyG', 'KeyE', 'Digit3', 'Digit8', 'Digit2', 'Digit9', 'ShiftLeft', 'Digit1', 'Enter', 'KeyB', 'ShiftLeft', 'KeyA', 'KeyL', 'KeyL', 'KeyO', 'ShiftLeft', 'KeyR', 'KeyA', 'KeyN', 'KeyG', 'KeyE', 'Digit3', 'Digit8', 'Digit2', 'Digit9', 'ShiftLeft', 'Digit1', 'Enter', 'KeyB', 'ShiftLeft', 'KeyA', 'KeyL', 'KeyL', 'ShiftLeft', 'KeyO', 'KeyR', 'KeyA', 'KeyN', 'KeyG', 'KeyE', 'Digit3', 'Digit8', 'Digit2', 'Digit9', 'ShiftLeft', 'Digit1', 'Enter']","['B', 'Shift', 'a', 'l', 'l', 'O', 'Shift', 'r', 'a', 'n', 'g', 'e', '3', '8', '2', '9', 'Shift', '1', 'Enter', 'B', 'Shift', 'a', 'l', 'l', 'O', 'Shift', 'r', 'a', 'n', 'g', 'e', '3', '8', '2', '9', 'Shift', '1', 'Enter', 'B', 'Shift', 'a', 'l', 'l', 'Shift', 'o', 'r', 'a', 'n', 'g', 'e', '3', '8', '2', '9', 'Shift', '1', 'Enter']","['1', '1', '1']",57.0,0.0,0.0,9.0,25.064,178.211,151.0,129.238,266.179,69.0,759.583,445.125,195.0,747.262,443.161,203.0,796.524,65.133,3,57,44,1Yr01bphWNORcb1H1Tv54d2K6HT2,-MpqI5jz1iZ15CgRbVPm,1638367259542,True,1,Deutsch,1,0,win32,KeyboardStudy_de,99,0.0
0,0,"['KeyB', 'ShiftLeft', 'KeyA', 'KeyL', 'KeyL', 'KeyO', 'ShiftLeft', 'KeyR', 'KeyA', 'KeyN', 'KeyG', 'KeyE', 'Digit3', 'Digit8', 'Digit2', 'Digit9', 'ShiftLeft', 'Digit1', 'Enter']","['B', 'Shift', 'a', 'l', 'l', 'O', 'Shift', 'r', 'a', 'n', 'g', 'e', '3', '8', '2', '9', 'Shift', '1', 'Enter']",['1'],19.0,0.0,0.0,3.0,5.005,185.526,173.0,84.963,82.222,14.0,234.493,270.611,195.0,228.131,262.278,193.0,293.075,39.76,1,74,66,1Yr01bphWNORcb1H1Tv54d2K6HT2,-MpqVtRM6bRiVxodnDiK,1638370875026,True,1,Deutsch,1,0,win32,KeyboardStudy_de,99,0.0
0,0,"['ShiftLeft', 'KeyB', 'KeyA', 'KeyL', 'KeyL', 'KeyO', 'ShiftLeft', 'KeyR', 'KeyN', 'KeyA', 'KeyG', 'KeyE', 'Digit3', 'Digit8', 'Digit1', 'Digit9', 'ShiftLeft', 'Digit1', 'Enter', 'ShiftLeft', 'KeyB', 'KeyA', 'KeyL', 'KeyL', 'ShiftLeft', 'KeyO', 'KeyR', 'KeyA', 'KeyN', 'KeyG', 'KeyE', 'Digit3', 'Digit8', 'Digit2', 'Digit9', 'ShiftLeft', 'Digit1', 'Enter']","['Shift', 'b', 'a', 'l', 'l', 'O', 'Shift', 'r', 'n', 'a', 'g', 'e', '3', '8', '1', '9', 'Shift', '1', 'Enter', 'Shift', 'b', 'a', 'l', 'l', 'Shift', 'o', 'r', 'a', 'n', 'g', 'e', '3', '8', '2', '9', 'Shift', '1', 'Enter']","['1', '1', '1']",38.0,0.0,0.0,6.0,13.474,157.895,140.5,62.439,202.0,34.0,529.126,360.973,181.0,518.733,357.432,186.0,556.536,62.12,2,43,62,1Yr01bphWNORcb1H1Tv54d2K6HT2,-Mpqik0vIoLih2aoSPGU,1638374506479,True,1,Deutsch,1,0,win32,KeyboardStudy_de,99,0.0
0,0,"['ShiftLeft', 'KeyB', 'KeyA', 'KeyL', 'KeyL', 'ShiftLeft', 'KeyO', 'KeyR', 'KeyA', 'KeyN', 'KeyG', 'KeyE', 'Digit2', 'Digit8', 'Digit1', 'Digit9', 'ShiftLeft', 'Digit1', 'Enter', 'ShiftLeft', 'KeyB', 'KeyA', 'KeyL', 'KeyL', 'ShiftLeft', 'KeyO', 'KeyR', 'KeyA', 'KeyN', 'KeyG', 'KeyE', 'Digit3', 'Digit8', 'Digit2', 'Digit9', 'ShiftLeft', 'Digit1', 'Enter']","['Shift', 'b', 'a', 'l', 'l', 'Shift', 'o', 'r', 'a', 'n', 'g', 'e', '2', '8', '1', '9', 'Shift', '1', 'Enter', 'Shift', 'b', 'a', 'l', 'l', 'Shift', 'o', 'r', 'a', 'n', 'g', 'e', '3', '8', '2', '9', 'Shift', '1', 'Enter']","['1', '1', '1']",38.0,0.0,0.0,6.0,11.945,163.974,145.5,52.55,154.432,8.0,440.287,319.838,164.0,425.54,315.595,171.0,459.639,56.082,2,46,42,1Yr01bphWNORcb1H1Tv54d2K6HT2,-MprVf4C0hJTtzjIojMp,1638387594414,True,1,Deutsch,1,0,win32,KeyboardStudy_de,99,0.0
0,0,"['KeyB', 'ShiftLeft', 'KeyA', 'KeyL', 'KeyL', 'ShiftLeft', 'KeyO', 'KeyR', 'KeyA', 'KeyN', 'KeyG', 'KeyE', 'Digit3', 'Digit8', 'Digit2', 'Digit9', 'ShiftLeft', 'Digit1', 'Enter']","['B', 'Shift', 'a', 'l', 'l', 'Shift', 'o', 'r', 'a', 'n', 'g', 'e', '3', '8', '2', '9', 'Shift', '1', 'Enter']",['1'],19.0,0.0,0.0,3.0,4.496,167.105,147.0,61.452,73.389,11.0,203.59,240.667,161.5,184.382,231.278,162.0,208.591,42.438,1,40,32,1Yr01bphWNORcb1H1Tv54d2K6HT2,-Mprb_ndQEiISijUVYJU,1638389408202,True,1,Deutsch,1,0,win32,KeyboardStudy_de,99,0.0
0,0,"['ShiftLeft', 'KeyB', 'KeyA', 'KeyL', 'KeyL', 'ShiftLeft', 'KeyO', 'KeyR', 'KeyA', 'KeyN', 'KeyG', 'KeyE', 'Digit2', 'Backspace', 'Digit3', 'Digit8', 'Digit2', 'Digit9', 'ShiftLeft', 'Digit1', 'Enter']","['Shift', 'b', 'a', 'l', 'l', 'Shift', 'o', 'r', 'a', 'n', 'g', 'e', '2', 'Backspace', '3', '8', '2', '9', 'Shift', '1', 'Enter']",['1'],21.0,1.0,0.0,3.0,7.812,195.095,192.0,76.734,185.75,68.0,330.069,382.0,211.5,325.466,375.05,286.0,339.491,56.093,1,74,56,1Yr01bphWNORcb1H1Tv54d2K6HT2,-MprpOKf8x0po2rZpMo6,1638393027113,True,1,Deutsch,1,0,win32,KeyboardStudy_de,99,1.0
0,0,"['KeyB', 'ShiftLeft', 'KeyA', 'KeyL', 'KeyL', 'ShiftLeft', 'KeyO', 'KeyR', 'KeyA', 'KeyN', 'KeyG', 'KeyE', 'Digit3', 'Digit8', 'Digit2', 'Digit9', 'ShiftLeft', 'Digit1', 'Enter']","['B', 'Shift', 'a', 'l', 'l', 'Shift', 'o', 'r', 'a', 'n', 'g', 'e', '3', '8', '2', '9', 'Shift', '1', 'Enter']",['1'],19.0,0.0,0.0,3.0,7.161,182.105,150.0,91.821,205.611,55.0,409.121,390.778,225.5,382.408,382.778,226.5,440.742,59.74,1,40,93,1Yr01bphWNORcb1H1Tv54d2K6HT2,-Mps2CUZxomEhYjaET6d,1638396647378,True,1,Deutsch,1,0,win32,KeyboardStudy_de,99,0.0
0,0,"['KeyB', 'ShiftLeft', 'KeyA', 'KeyL', 'KeyL', 'ShiftLeft', 'KeyO', 'KeyR', 'KeyN', 'KeyA', 'KeyG', 'KeyE', 'Digit3', 'Digit8', 'Digit2', 'Digit9', 'ShiftLeft', 'Digit1', 'Enter', 'KeyB', 'ShiftLeft', 'KeyA', 'KeyL', 'KeyL', 'KeyO', 'ShiftLeft', 'KeyR', 'KeyA', 'KeyN', 'KeyG', 'KeyE', 'Digit3', 'Digit8', 'Digit2', 'Digit9', 'ShiftLeft', 'Digit1', 'Enter', 'KeyB', 'ShiftLeft', 'KeyA', 'KeyL', 'KeyL', 'ShiftLeft', 'KeyO', 'KeyR', 'KeyA', 'KeyN', 'KeyG', 'KeyE', 'Digit3', 'Digit8', 'Digit2', 'Digit9', 'ShiftLeft', 'Digit1', 'Enter']","['B', 'Shift', 'a', 'l', 'l', 'Shift', 'o', 'r', 'n', 'a', 'g', 'e', '3', '8', '2', '9', 'Shift', '1', 'Enter', 'B', 'Shift', 'a', 'l', 'l', 'O', 'Shift', 'r', 'a', 'n', 'g', 'e', '3', '8', '2', '9', 'Shift', '1', 'Enter', 'B', 'Shift', 'a', 'l', 'l', 'Shift', 'o', 'r', 'a', 'n', 'g', 'e', '3', '8', '2', '9', 'Shift', '1', 'Enter']","['1', '1', '1']",57.0,0.0,0.0,9.0,23.408,171.053,157.0,68.42,243.893,84.0,547.602,415.554,227.5,539.502,413.982,225.0,566.29,64.948,3,42,72,1Yr01bphWNORcb1H1Tv54d2K6HT2,-MpsU3n9yoqfd1G88gNK,1638400349752,True,1,Deutsch,1,0,win32,KeyboardStudy_de,99,0.0
0,0,"['KeyN', 'ShiftLeft', 'Backspace', 'KeyB', 'ShiftLeft', 'KeyA', 'KeyL', 'KeyL', 'ShiftLeft', 'KeyO', 'KeyR', 'KeyA', 'KeyN', 'KeyG', 'KeyE', 'Digit3', 'Digit8', 'Digit2', 'Digit9', 'ShiftLeft', 'Digit1', 'Enter']","['N', 'Shift', 'Backspace', 'B', 'Shift', 'a', 'l', 'l', 'Shift', 'o', 'r', 'a', 'n', 'g', 'e', '3', '8', '2', '9', 'Shift', '1', 'Enter']","['N', '1']",22.0,1.0,0.0,4.0,4.764,179.727,155.0,74.606,38.571,37.0,157.991,219.619,186.0,129.725,210.762,178.0,151.228,32.641,1,78,72,1Yr01bphWNORcb1H1Tv54d2K6HT2,-MpsWVtOrPBp98ERWdwx,1638404591263,True,1,Deutsch,1,0,win32,KeyboardStudy_de,99,2.0
0,0,"['ShiftLeft', 'KeyB', 'KeyA', 'KeyL', 'KeyL', 'ShiftLeft', 'KeyO', 'KeyR', 'KeyA', 'KeyN', 'KeyG', 'KeyE', 'Digit3', 'Digit8', 'Digit2', 'Digit9', 'ShiftLeft', 'Digit1', 'Enter']","['Shift', 'b', 'a', 'l', 'l', 'Shift', 'o', 'r', 'a', 'n', 'g', 'e', '3', '8', '2', '9', 'Shift', '1', 'Enter']",['1'],19.0,0.0,0.0,3.0,5.114,174.211,160.0,79.847,100.222,77.0,172.883,274.889,240.0,145.987,258.722,220.0,170.903,42.257,1,68,68,1Yr01bphWNORcb1H1Tv54d2K6HT2,-MpuH593jvimkM4IqA3D,1638434104853,True,1,Deutsch,1,0,win32,KeyboardStudy_de,99,0.0
0,0,"['ShiftLeft', 'KeyB', 'KeyA', 'KeyL', 'KeyL', 'ShiftLeft', 'KeyO', 'KeyR', 'KeyA', 'KeyN', 'KeyG', 'KeyE', 'Digit3', 'Digit8', 'Digit2', 'Digit9', 'ShiftLeft', 'Digit1', 'Enter']","['Shift', 'b', 'a', 'l', 'l', 'Shift', 'o', 'r', 'a', 'n', 'g', 'e', '3', '8', '2', '9', 'Shift', '1', 'Enter']",['1'],19.0,0.0,0.0,3.0,4.355,157.579,151.0,39.894,75.611,25.0,158.54,234.611,161.0,145.868,227.722,198.5,148.808,40.023,1,35,61,1Yr01bphWNORcb1H1Tv54d2K6HT2,-MpuUtNK_WrEMcvSKa1R,1638437722492,True,1,Deutsch,1,0,win32,KeyboardStudy_de,99,0.0
0,0,"['ShiftLeft', 'KeyB', 'KeyA', 'KeyL', 'KeyL', 'ShiftLeft', 'KeyO', 'KeyR', 'KeyA', 'KeyN', 'KeyG', 'KeyE', 'Digit3', 'Digit8', 'Digit2', 'Digit9', 'ShiftLeft', 'Digit1', 'Enter']","['Shift', 'b', 'a', 'l', 'l', 'Shift', 'o', 'r', 'a', 'n', 'g', 'e', '3', '8', '2', '9', 'Shift', '1', 'Enter']",['1'],19.0,0.0,0.0,3.0,5.553,157.632,142.0,69.413,142.111,69.0,276.161,302.778,213.5,260.954,294.0,212.0,277.007,51.972,1,34,76,1Yr01bphWNORcb1H1Tv54d2K6HT2,-Mpuhg0Y_OSpB5o4Y3ci,1638441337778,True,1,Deutsch,1,0,win32,KeyboardStudy_de,99,0.0
0,0,"['ShiftLeft', 'KeyB', 'KeyA', 'KeyK', 'Backspace', 'Backspace', 'KeyA', 'KeyL', 'KeyL', 'ShiftLeft', 'KeyO', 'KeyR', 'KeyA', 'KeyN', 'KeyG', 'KeyE', 'Digit3', 'Digit8', 'Digit2', 'Digit9', 'ShiftLeft', 'Digit1', 'Enter']","['Shift', 'b', 'a', 'k', 'Backspace', 'Backspace', 'a', 'l', 'l', 'Shift', 'o', 'r', 'a', 'n', 'g', 'e', '3', '8', '2', '9', 'Shift', '1', 'Enter']","['k', '1']",23.0,2.0,0.0,3.0,6.637,150.696,151.0,47.146,144.136,46.0,289.761,295.545,176.0,269.812,290.364,200.5,292.607,54.603,1,35,66,1Yr01bphWNORcb1H1Tv54d2K6HT2,-MpuvTx9reP_r2939JxT,1638444954236,True,1,Deutsch,1,0,win32,KeyboardStudy_de,99,2.0
0,0,"['ShiftLeft', 'KeyB', 'KeyA', 'KeyL', 'KeyL', 'ShiftLeft', 'KeyO', 'KeyR', 'KeyA', 'KeyN', 'KeyG', 'KeyE', 'Digit3', 'Digit8', 'Digit2', 'Digit9', 'ShiftLeft', 'Digit1', 'Enter']","['Shift', 'b', 'a', 'l', 'L', 'Shift', 'o', 'r', 'a', 'n', 'g', 'e', '3', '8', '2', '9', 'Shift', '1', 'Enter']","['L', '1']",19.0,0.0,0.0,3.0,5.643,160.053,143.0,58.991,144.556,39.0,263.44,307.0,178.5,254.252,301.278,204.0,276.11,54.864,1,70,77,1Yr01bphWNORcb1H1Tv54d2K6HT2,-MpvVkXPaQhBCBKioJcz,1638454725533,True,1,Deutsch,1,0,win32,KeyboardStudy_de,99,0.0
0,0,"['ShiftLeft', 'KeyB', 'KeyA', 'KeyL', 'KeyL', 'ShiftLeft', 'KeyO', 'KeyR', 'KeyA', 'KeyN', 'KeyG', 'KeyE', 'Digit3', 'Digit8', 'Digit1', 'Backspace', 'Digit2', 'Digit9', 'ShiftLeft', 'Digit1', 'Enter']","['Shift', 'b', 'a', 'l', 'l', 'Shift', 'o', 'r', 'a', 'n', 'g', 'e', '3', '8', '1', 'Backspace', '2', '9', 'Shift', '1', 'Enter']","['1', '1']",21.0,1.0,0.0,3.0,7.239,166.714,156.0,64.483,186.9,31.5,367.85,356.8,185.5,366.147,348.45,200.5,389.024,56.886,1,68,61,1Yr01bphWNORcb1H1Tv54d2K6HT2,-MpviZjiCWT2gR2OKM5F,1638458347219,True,1,Deutsch,1,0,win32,KeyboardStudy_de,99,1.0
0,0,"['ShiftLeft', 'KeyB', 'KeyA', 'KeyL', 'KeyL', 'ShiftLeft', 'KeyO', 'KeyR', 'KeyA', 'KeyN', 'KeyG', 'KeyE', 'Digit3', 'Digit8', 'Digit2', 'Digit9', 'ShiftLeft', 'Digit1', 'Enter']","['Shift', 'b', 'a', 'l', 'l', 'Shift', 'o', 'r', 'a', 'n', 'g', 'e', '3', '8', '2', '9', 'Shift', '1', 'Enter']",['1'],19.0,0.0,0.0,3.0,6.1,171.789,157.0,51.323,157.556,88.5,269.869,330.611,227.0,265.911,325.722,228.5,281.784,52.738,1,68,71,1Yr01bphWNORcb1H1Tv54d2K6HT2,-MpvwNlzswDsDS6Pu0NU,1638461968206,True,1,Deutsch,1,0,win32,KeyboardStudy_de,99,0.0
0,0,"['ShiftLeft', 'KeyB', 'KeyA', 'KeyL', 'KeyL', 'ShiftLeft', 'KeyO', 'KeyR', 'KeyA', 'KeyN', 'KeyG', 'KeyE', 'Digit3', 'Digit8', 'Digit1', 'Digit9', 'Backspace', 'Backspace', 'Backspace', 'Backspace', 'ShiftLeft', 'KeyB', 'KeyA', 'KeyL', 'KeyL', 'ShiftLeft', 'KeyO', 'KeyR', 'KeyA', 'KeyN', 'KeyG', 'KeyE', 'Digit3', 'Digit8', 'Digit2', 'Digit9', 'ShiftLeft', 'Digit1', 'Enter']","['Shift', 'b', 'a', 'l', 'l', 'Shift', 'o', 'r', 'a', 'n', 'g', 'e', '3', '8', '1', '9', 'Backspace', 'Backspace', 'Backspace', 'Backspace', 'Shift', 'b', 'a', 'l', 'l', 'Shift', 'o', 'r', 'a', 'n', 'g', 'e', '3', '8', '2', '9', 'Shift', '1', 'Enter']","['1', '1']",39.0,4.0,0.0,5.0,11.627,195.667,171.0,150.137,105.158,31.0,285.881,301.632,186.5,315.359,299.316,209.5,329.516,42.074,1,73,69,1Yr01bphWNORcb1H1Tv54d2K6HT2,-MpwAAg50lCUSKbdklG1,1638465846711,True,1,Deutsch,1,0,win32,KeyboardStudy_de,99,16.0
0,0,"['KeyB', 'ShiftLeft', 'KeyA', 'KeyL', 'KeyL', 'ShiftLeft', 'KeyO', 'KeyR', 'KeyA', 'KeyN', 'KeyG', 'KeyE', 'Digit3', 'Digit8', 'Digit2', 'Digit9', 'ShiftLeft', 'Digit1', 'Enter', 'KeyB', 'ShiftLeft', 'KeyA', 'KeyL', 'KeyL', 'KeyO', 'ShiftLeft', 'KeyR', 'KeyA', 'KeyN', 'KeyG', 'KeyE', 'Digit3', 'Digit8', 'Digit2', 'Digit9', 'ShiftLeft', 'Digit1', 'Enter']","['B', 'Shift', 'a', 'l', 'l', 'Shift', 'o', 'r', 'a', 'n', 'g', 'e', '3', '8', '2', '9', 'Shift', '1', 'Enter', 'B', 'Shift', 'a', 'l', 'l', 'O', 'Shift', 'r', 'a', 'n', 'g', 'e', '3', '8', '2', '9', 'Shift', '1', 'Enter']","['1', '1']",38.0,0.0,0.0,6.0,12.557,173.184,152.0,62.951,161.514,45.0,451.295,335.568,203.0,438.798,330.108,212.0,474.99,54.217,2,84,78,1Yr01bphWNORcb1H1Tv54d2K6HT2,-MpwO-onJNFpKl1trZ78,1638469472218,True,1,Deutsch,1,0,win32,KeyboardStudy_de,99,0.0
0,0,"['ShiftLeft', 'KeyB', 'KeyA', 'KeyL', 'KeyL', 'ShiftLeft', 'KeyO', 'KeyR', 'KeyA', 'KeyN', 'KeyG', 'KeyE', 'Digit3', 'Digit8', 'Digit2', 'Digit9', 'ShiftLeft', 'Digit1', 'Enter']","['Shift', 'b', 'a', 'l', 'l', 'Shift', 'o', 'r', 'a', 'n', 'g', 'e', '3', '8', '2', '9', 'Shift', '1', 'Enter']",['1'],19.0,0.0,0.0,3.0,4.716,172.842,162.0,59.135,79.556,71.5,155.355,253.0,211.0,145.243,248.278,263.0,165.688,39.928,1,74,67,1Yr01bphWNORcb1H1Tv54d2K6HT2,-MpwauuKaH5JZXfQKPlU,1638473117981,True,1,Deutsch,1,0,win32,KeyboardStudy_de,99,0.0
0,0,"['ShiftLeft', 'KeyB', 'KeyA', 'KeyL', 'KeyL', 'ShiftRight', 'KeyO', 'KeyR', 'KeyA', 'KeyN', 'KeyG', 'KeyE', 'Digit3', 'Digit8', 'Digit2', 'Digit9', 'ShiftLeft', 'Digit1', 'Enter']","['Shift', 'b', 'a', 'l', 'l', 'Shift', 'o', 'r', 'a', 'n', 'g', 'e', '3', '8', '2', '9', 'Shift', '1', 'Enter']",['1'],19.0,0.0,0.0,3.0,12.137,165.316,102.0,136.339,499.778,483.5,476.697,668.611,614.5,408.722,643.778,564.5,507.618,76.757,1,71,62,1Yr01bphWNORcb1H1Tv54d2K6HT2,-MpwolCh1zUp33_oKLb0,1638476748238,True,1,Deutsch,1,0,win32,KeyboardStudy_de,99,0.0
0,0,"['ShiftLeft', 'KeyB', 'KeyA', 'KeyL', 'KeyL', 'ShiftLeft', 'KeyO', 'KeyR', 'KeyA', 'KeyN', 'KeyG', 'KeyE', 'Digit3', 'Digit8', 'Digit2', 'Digit9', 'ShiftLeft', 'Digit1', 'Enter']","['Shift', 'b', 'a', 'l', 'l', 'Shift', 'o', 'r', 'a', 'n', 'g', 'e', '3', '8', '2', '9', 'Shift', '1', 'Enter']",['1'],19.0,0.0,0.0,3.0,5.22,164.0,173.0,51.32,116.889,18.0,274.62,280.389,163.5,279.407,277.5,181.5,288.053,46.935,1,74,71,1Yr01bphWNORcb1H1Tv54d2K6HT2,-Mpx1vqJ0VHZcSt7ynxd,1638480461791,True,1,Deutsch,1,0,win32,KeyboardStudy_de,99,0.0
0,0,"['ShiftLeft', 'KeyB', 'KeyA', 'KeyK', 'KeyK', 'KeyO', 'ShiftLeft', 'Backspace', 'Backspace', 'Backspace', 'Backspace', 'Backspace', 'ShiftLeft', 'KeyB', 'KeyA', 'KeyL', 'KeyO', 'ShiftLeft', 'KeyR', 'KeyA', 'KeyN', 'KeyG', 'KeyE', 'Digit3', 'Digit8', 'Digit2', 'Digit9', 'ShiftLeft', 'Digit1', 'Enter', 'ShiftLeft', 'KeyB', 'KeyA', 'KeyL', 'KeyL', 'KeyO', 'ShiftLeft', 'KeyR', 'KeyA', 'KeyN', 'KeyG', 'KeyE', 'Digit3', 'Digit8', 'Digit2', 'Digit9', 'ShiftLeft', 'Digit1', 'Enter']","['Shift', 'b', 'a', 'k', 'k', 'O', 'Shift', 'Backspace', 'Backspace', 'Backspace', 'Backspace', 'Backspace', 'Shift', 'b', 'a', 'l', 'O', 'Shift', 'r', 'a', 'n', 'g', 'e', '3', '8', '2', '9', 'Shift', '1', 'Enter', 'Shift', 'b', 'a', 'l', 'l', 'O', 'Shift', 'r', 'a', 'n', 'g', 'e', '3', '8', '2', '9', 'Shift', '1', 'Enter']","['k', 'k', '1', '1']",49.0,5.0,0.0,8.0,13.191,161.918,157.0,59.201,109.521,41.0,377.676,271.5,168.0,368.274,270.25,168.5,391.7,50.049,2,94,59,1Yr01bphWNORcb1H1Tv54d2K6HT2,-MpxUVcczW5Beg-0aMDX,1638487952469,True,1,Deutsch,1,0,win32,KeyboardStudy_de,99,6.0
0,0,"['ShiftLeft', 'KeyB', 'KeyA', 'KeyL', 'KeyL', 'ShiftRight', 'KeyO', 'KeyR', 'KeyA', 'KeyN', 'KeyG', 'KeyE', 'Digit3', 'Digit8', 'Digit2', 'Digit9', 'ShiftLeft', 'Digit1', 'Enter']","['Shift', 'b', 'a', 'l', 'l', 'Shift', 'o', 'r', 'a', 'n', 'g', 'e', '3', '8', '2', '9', 'Shift', '1', 'Enter']",['1'],19.0,0.0,0.0,3.0,12.441,289.316,131.0,461.976,385.778,451.0,316.84,684.611,611.5,397.728,671.444,575.0,603.349,58.91,1,39,73,1Yr01bphWNORcb1H1Tv54d2K6HT2,-MpzQLwIapLJ7l2qjK_j,1638520420096,True,1,Deutsch,1,0,win32,KeyboardStudy_de,99,0.0
0,0,"['ShiftLeft', 'KeyB', 'KeyA', 'KeyL', 'KeyL', 'ShiftLeft', 'KeyO', 'KeyR', 'KeyA', 'KeyN', 'KeyG', 'KeyE', 'Digit3', 'Digit8', 'Digit2', 'Digit9', 'ShiftLeft', 'Digit1', 'Enter']","['Shift', 'b', 'a', 'l', 'l', 'Shift', 'o', 'r', 'a', 'n', 'g', 'e', '3', '8', '2', '9', 'Shift', '1', 'Enter']",['1'],19.0,0.0,0.0,3.0,6.375,162.211,155.0,51.688,182.944,84.5,276.419,346.333,232.0,265.84,341.056,237.0,283.412,56.565,1,79,70,1Yr01bphWNORcb1H1Tv54d2K6HT2,-MpzaU6R0eYitVE_NzGh,1638523337130,True,1,Deutsch,1,0,win32,KeyboardStudy_de,99,0.0
0,0,"['ShiftLeft', 'KeyB', 'KeyL', 'KeyL', 'ShiftLeft', 'KeyO', 'KeyR', 'KeyA', 'KeyN', 'KeyG', 'KeyE', 'Digit3', 'Digit8', 'Digit2', 'Digit9', 'ShiftLeft', 'Digit1', 'Enter', 'ShiftLeft', 'KeyB', 'KeyA', 'KeyL', 'KeyL', 'ShiftLeft', 'KeyO', 'KeyR', 'KeyA', 'KeyN', 'KeyG', 'KeyE', 'Digit3', 'Digit8', 'Digit2', 'Digit9', 'ShiftLeft', 'Digit1', 'Enter']","['Shift', 'b', 'l', 'l', 'Shift', 'o', 'r', 'a', 'n', 'g', 'e', '3', '8', '2', '9', 'Shift', '1', 'Enter', 'Shift', 'b', 'a', 'l', 'l', 'Shift', 'o', 'r', 'a', 'n', 'g', 'e', '3', '8', '2', '9', 'Shift', '1', 'Enter']","['1', '1']",37.0,0.0,0.0,6.0,12.291,161.378,140.0,58.771,175.556,68.0,559.754,338.333,199.5,550.455,334.111,202.0,588.902,59.076,2,63,63,1Yr01bphWNORcb1H1Tv54d2K6HT2,-Mq-AWgxkSfrz-1JyVor,1638533046918,True,1,Deutsch,1,0,win32,KeyboardStudy_de,99,-1.0
0,0,"['ShiftLeft', 'KeyB', 'KeyA', 'KeyL', 'KeyL', 'ShiftLeft', 'KeyO', 'KeyR', 'KeyA', 'KeyN', 'KeyG', 'KeyE', 'Digit3', 'Digit8', 'Digit2', 'Digit9', 'ShiftLeft', 'Digit1', 'Enter']","['Shift', 'b', 'a', 'l', 'l', 'Shift', 'o', 'r', 'a', 'n', 'g', 'e', '3', '8', '2', '9', 'Shift', '1', 'Enter']",['1'],19.0,0.0,0.0,3.0,4.586,148.368,141.0,45.36,98.167,51.5,262.205,249.111,143.5,259.829,242.778,169.5,270.169,46.293,1,39,69,1Yr01bphWNORcb1H1Tv54d2K6HT2,-Mq-OJKXtEJz_kWUuljE,1638536662166,True,1,Deutsch,1,0,win32,KeyboardStudy_de,99,0.0
0,0,"['ShiftLeft', 'KeyB', 'KeyA', 'KeyL', 'KeyL', 'ShiftLeft', 'KeyO', 'KeyR', 'KeyA', 'KeyN', 'KeyG', 'KeyE', 'Digit3', 'Digit8', 'Digit2', 'Digit9', 'ShiftLeft', 'Digit1', 'Enter']","['Shift', 'b', 'a', 'l', 'l', 'Shift', 'o', 'r', 'a', 'n', 'g', 'e', '3', '8', '2', '9', 'Shift', '1', 'Enter']",['1'],19.0,0.0,0.0,3.0,4.145,167.684,164.0,50.48,53.278,-8.0,192.017,220.056,144.0,190.986,217.389,150.5,203.236,36.212,1,61,73,1Yr01bphWNORcb1H1Tv54d2K6HT2,-Mq-h9T5Muhm94Lyhinr,1638541864576,True,1,Deutsch,1,0,win32,KeyboardStudy_de,99,0.0
0,0,"['ShiftLeft', 'KeyB', 'KeyA', 'KeyL', 'KeyL', 'ShiftLeft', 'KeyO', 'KeyR', 'KeyA', 'KeyN', 'KeyG', 'KeyE', 'Digit3', 'Digit8', 'Digit2', 'Digit9', 'ShiftLeft', 'Digit1', 'Enter']","['Shift', 'b', 'a', 'l', 'l', 'Shift', 'o', 'r', 'a', 'n', 'g', 'e', '3', '8', '2', '9', 'Shift', '1', 'Enter']",['1'],19.0,0.0,0.0,3.0,3.667,132.368,114.0,37.354,64.0,30.0,186.496,196.778,139.5,172.608,191.889,167.5,181.352,41.969,1,63,77,1Yr01bphWNORcb1H1Tv54d2K6HT2,-Mq-uwH2hHi5Bzlu__pO,1638545476458,True,1,Deutsch,1,0,win32,KeyboardStudy_de,99,0.0
0,0,"['ShiftLeft', 'KeyB', 'KeyA', 'KeyL', 'KeyL', 'ShiftLeft', 'KeyO', 'KeyR', 'KeyA', 'KeyN', 'KeyG', 'KeyE', 'Digit3', 'Digit8', 'Digit2', 'ShiftLeft', 'Digit1', 'Enter', 'ShiftLeft', 'KeyB', 'KeyA', 'KeyL', 'KeyL', 'ShiftLeft', 'KeyO', 'KeyR', 'KeyA', 'KeyN', 'KeyG', 'KeyE', 'Digit3', 'Digit8', 'Digit2', 'Digit9', 'ShiftLeft', 'Digit1', 'Backslash', 'Backspace', 'Enter']","['Shift', 'b', 'a', 'l', 'l', 'Shift', 'o', 'r', 'a', 'n', 'g', 'e', '3', '8', '2', 'Shift', '1', 'Enter', 'Shift', 'b', 'a', 'l', 'L', 'Shift', 'o', 'r', 'a', 'n', 'g', 'e', '3', '8', '2', '9', 'Shift', '1', '#', 'Backspace', 'Enter']","['1', 'L', '1', '#']",39.0,1.0,0.0,6.0,10.818,159.385,152.0,40.696,121.105,15.0,409.299,281.5,165.5,404.671,277.895,187.0,423.866,50.314,2,71,75,1Yr01bphWNORcb1H1Tv54d2K6HT2,-Mq1aEg-ItkCO6HJNtfD,1638573606306,True,1,Deutsch,1,0,win32,KeyboardStudy_de,99,0.0
0,0,"['ShiftLeft', 'KeyB', 'KeyA', 'KeyL', 'KeyL', 'ShiftLeft', 'KeyO', 'KeyR', 'KeyA', 'KeyN', 'KeyG', 'KeyE', 'Digit3', 'Digit8', 'Digit2', 'Digit9', 'ShiftLeft', 'Digit1', 'Enter']","['Shift', 'b', 'a', 'l', 'L', 'Shift', 'o', 'r', 'a', 'n', 'g', 'e', '3', '8', '2', '9', 'Shift', '1', 'Enter']","['L', '1']",19.0,0.0,0.0,3.0,4.756,185.263,155.0,102.813,68.667,28.5,153.407,255.5,193.0,144.021,232.222,210.5,140.229,35.05,1,46,59,1Yr01bphWNORcb1H1Tv54d2K6HT2,-Mq1oFhioorTSBN5mnOd,1638577280492,True,1,Deutsch,1,0,win32,KeyboardStudy_de,99,0.0
0,0,"['ShiftLeft', 'KeyB', 'KeyA', 'KeyL', 'ShiftLeft', 'KeyO', 'KeyR', 'KeyA', 'KeyN', 'KeyG', 'KeyE', 'Digit3', 'Digit8', 'Digit2', 'Digit9', 'ShiftLeft', 'Digit1', 'Enter', 'ShiftLeft', 'KeyB', 'KeyA', 'KeyL', 'KeyL', 'ShiftLeft', 'KeyO', 'KeyR', 'KeyA', 'KeyN', 'KeyG', 'KeyE', 'Digit3', 'Digit8', 'Digit2', 'Digit9', 'Digit1', 'ShiftLeft', 'Enter']","['Shift', 'b', 'a', 'l', 'Shift', 'o', 'r', 'a', 'n', 'g', 'e', '3', '8', '2', '9', 'Shift', '1', 'Enter', 'Shift', 'b', 'a', 'l', 'l', 'Shift', 'o', 'r', 'a', 'n', 'g', 'e', '3', '8', '2', '9', '!', 'Shift', 'Enter']",['1'],37.0,0.0,0.0,6.0,15.012,175.297,160.0,60.673,236.833,59.5,647.089,412.556,209.0,636.369,409.639,229.0,680.236,62.79,2,56,60,1Yr01bphWNORcb1H1Tv54d2K6HT2,-Mq214hMhUbNitKzhTJ2,1638580905394,True,1,Deutsch,1,0,win32,KeyboardStudy_de,99,-1.0
0,0,"['KeyB', 'ShiftLeft', 'KeyA', 'KeyL', 'KeyL', 'ShiftLeft', 'KeyO', 'KeyR', 'KeyA', 'KeyN', 'KeyG', 'KeyE', 'Digit3', 'Digit8', 'Digit2', 'Digit9', 'ShiftLeft', 'Digit1', 'Enter']","['B', 'Shift', 'a', 'l', 'L', 'Shift', 'o', 'r', 'a', 'n', 'g', 'e', '3', '8', '2', '9', 'Shift', '1', 'Enter']","['L', '1']",19.0,0.0,0.0,3.0,6.164,174.474,160.0,118.701,158.278,72.0,337.521,333.556,206.5,334.095,308.0,224.0,336.265,51.768,1,37,70,1Yr01bphWNORcb1H1Tv54d2K6HT2,-Mq3f6SqDAzgajScs6s3,1638608437757,True,1,Deutsch,1,0,win32,KeyboardStudy_de,99,0.0
0,0,"['ShiftLeft', 'KeyB', 'KeyA', 'KeyL', 'KeyL', 'ShiftLeft', 'KeyO', 'KeyR', 'KeyA', 'KeyN', 'KeyG', 'KeyE', 'Digit3', 'Digit8', 'Digit2', 'Digit9', 'ShiftLeft', 'Digit1', 'Enter']","['Shift', 'b', 'a', 'l', 'l', 'Shift', 'o', 'r', 'a', 'n', 'g', 'e', '3', '8', '2', '9', 'Shift', '1', 'Enter']",['1'],19.0,0.0,0.0,3.0,3.527,149.316,144.0,58.818,38.333,21.0,114.763,189.333,152.0,100.686,180.389,171.0,115.701,31.443,1,42,62,1Yr01bphWNORcb1H1Tv54d2K6HT2,-Mq3ssg602bEY0JwWOSF,1638612047215,True,1,Deutsch,1,0,win32,KeyboardStudy_de,99,0.0
0,0,"['ShiftLeft', 'KeyB', 'KeyA', 'KeyL', 'KeyL', 'ShiftLeft', 'KeyO', 'KeyR', 'KeyA', 'KeyN', 'KeyG', 'KeyE', 'Digit3', 'Digit8', 'Digit2', 'Digit9', 'ShiftLeft', 'Digit1', 'Enter']","['Shift', 'b', 'a', 'l', 'L', 'Shift', 'o', 'r', 'a', 'n', 'g', 'e', '3', '8', '2', '9', 'Shift', '1', 'Enter']","['L', '1']",19.0,0.0,0.0,3.0,3.592,139.105,134.0,40.856,52.722,0.0,167.154,193.5,125.5,167.804,187.611,150.5,162.793,37.973,1,43,44,1Yr01bphWNORcb1H1Tv54d2K6HT2,-Mq4YUVh5LjzK-jMEUED,1638623216220,True,1,Deutsch,1,0,win32,KeyboardStudy_de,99,0.0
0,0,"['ShiftLeft', 'KeyV', 'Backspace', 'ShiftLeft', 'KeyB', 'KeyA', 'KeyL', 'KeyL', 'ShiftLeft', 'KeyO', 'KeyR', 'KeyA', 'KeyN', 'KeyG', 'KeyE', 'Digit3', 'Digit8', 'Digit2', 'Digit9', 'ShiftLeft', 'Digit1', 'Enter']","['Shift', 'v', 'Backspace', 'Shift', 'b', 'a', 'l', 'l', 'Shift', 'o', 'r', 'a', 'n', 'g', 'e', '3', '8', '2', '9', 'Shift', '1', 'Enter']","['v', '1']",22.0,1.0,0.0,4.0,5.676,167.364,141.5,69.479,94.952,51.0,163.955,264.095,213.0,143.181,252.619,177.0,195.285,41.314,1,40,45,1Yr01bphWNORcb1H1Tv54d2K6HT2,-Mq4lHAajpGAToR5PMWv,1638626829013,True,1,Deutsch,1,0,win32,KeyboardStudy_de,99,2.0
0,0,"['ShiftLeft', 'KeyB', 'KeyA', 'KeyL', 'KeyL', 'ShiftLeft', 'KeyO', 'KeyR', 'KeyA', 'KeyN', 'KeyG', 'KeyE', 'Digit3', 'Digit8', 'Digit2', 'Digit9', 'ShiftLeft', 'Digit1', 'Enter']","['Shift', 'b', 'a', 'l', 'l', 'Shift', 'o', 'r', 'a', 'n', 'g', 'e', '3', '8', '2', ')', 'Shift', '1', 'Enter']","[')', '1']",19.0,0.0,0.0,3.0,3.196,163.474,162.0,46.241,5.0,-9.0,76.298,169.389,144.5,65.304,164.778,160.0,98.989,18.805,1,63,62,1Yr01bphWNORcb1H1Tv54d2K6HT2,-Mq5UCoMBN223CJOOl9l,1638638869369,True,1,Deutsch,1,0,win32,KeyboardStudy_de,99,0.0
0,0,"['ShiftRight', 'KeyB', 'KeyA', 'KeyL', 'KeyL', 'ShiftRight', 'KeyO', 'KeyR', 'KeyA', 'KeyN', 'KeyD', 'Backspace', 'KeyG', 'KeyE', 'Digit3', 'Digit2', 'Digit9', 'ShiftLeft', 'Digit1', 'Enter', 'ShiftLeft', 'KeyB', 'KeyA', 'KeyL', 'KeyL', 'ShiftRight', 'KeyO', 'KeyR', 'KeyA', 'KeyM', 'KeyG', 'KeyE', 'Digit3', 'Digit8', 'Digit9', 'ShiftLeft', 'Digit1', 'Enter', 'ShiftLeft', 'KeyB', 'KeyA', 'KeyL', 'KeyL', 'ShiftRight', 'KeyO', 'KeyR', 'KeyA', 'KeyN', 'KeyG', 'KeyE', 'Digit3', 'Digit8', 'Digit2', 'Digit9', 'ShiftLeft', 'Digit1', 'Enter']","['Shift', 'b', 'a', 'l', 'l', 'Shift', 'o', 'r', 'a', 'n', 'd', 'Backspace', 'g', 'e', '3', '2', '9', 'Shift', '1', 'Enter', 'Shift', 'b', 'a', 'l', 'l', 'Shift', 'o', 'r', 'a', 'm', 'g', 'e', '3', '8', '9', 'Shift', '1', 'Enter', 'Shift', 'b', 'a', 'l', 'l', 'Shift', 'o', 'r', 'a', 'n', 'g', 'e', '3', '8', '2', '9', 'Shift', '1', 'Enter']","['d', '1', 'm', '1', '1']",57.0,1.0,0.0,9.0,42.978,182.579,119.0,178.223,581.625,385.0,1046.317,765.25,544.0,1011.546,755.036,520.0,1096.358,77.777,3,56,34,1Yr01bphWNORcb1H1Tv54d2K6HT2,-Mq5hAYFsXHWAPAra3cO,1638642530061,True,1,Deutsch,1,0,win32,KeyboardStudy_de,99,-1.0
0,0,"['ShiftLeft', 'KeyB', 'KeyA', 'KeyL', 'KeyL', 'ShiftLeft', 'KeyO', 'KeyR', 'KeyA', 'KeyN', 'KeyG', 'KeyE', 'Digit3', 'Digit8', 'Digit2', 'Digit9', 'ShiftLeft', 'Digit1', 'Enter']","['Shift', 'b', 'a', 'l', 'L', 'Shift', 'o', 'r', 'a', 'n', 'g', 'e', '3', '8', '2', '9', 'Shift', '1', 'Enter']","['L', '1']",19.0,0.0,0.0,3.0,3.947,168.474,172.0,41.874,41.444,2.0,142.843,209.722,176.0,131.086,205.611,192.5,150.735,28.731,1,62,40,1Yr01bphWNORcb1H1Tv54d2K6HT2,-Mq7905YuzRjWWbDPIW3,1638666867467,True,1,Deutsch,1,0,win32,KeyboardStudy_de,99,0.0
0,0,"['ShiftLeft', 'KeyB', 'KeyA', 'KeyL', 'KeyL', 'ShiftLeft', 'KeyO', 'KeyR', 'KeyN', 'KeyA', 'KeyG', 'KeyE', 'ShiftLeft', 'Digit3', 'Digit8', 'ShiftLeft', 'Digit2', 'Digit9', 'ShiftLeft', 'Digit1', 'Enter']","['Shift', 'b', 'a', 'l', 'L', 'Shift', 'o', 'r', 'n', 'a', 'g', 'E', 'Shift', '3', '8', 'Shift', '2', '9', 'Shift', '1', 'Enter']","['L', 'E', '1']",21.0,0.0,0.0,5.0,4.253,166.19,159.0,61.052,38.15,24.0,117.237,206.6,168.0,105.67,198.8,166.0,119.887,28.592,1,38,59,1Yr01bphWNORcb1H1Tv54d2K6HT2,-Mq9EbC2nq0PhVt1AWpK,1638701889601,True,1,Deutsch,1,0,win32,KeyboardStudy_de,99,2.0
0,0,"['ShiftLeft', 'KeyB', 'KeyA', 'KeyL', 'KeyL', 'ShiftLeft', 'KeyO', 'KeyR', 'KeyA', 'KeyN', 'KeyG', 'KeyE', 'Digit3', 'Digit8', 'Digit2', 'Digit9', 'ShiftLeft', 'Digit1', 'Enter']","['Shift', 'b', 'a', 'l', 'l', 'Shift', 'o', 'r', 'a', 'n', 'g', 'e', '3', '8', '2', '9', 'Shift', '1', 'Enter']",['1'],19.0,0.0,0.0,3.0,3.752,142.895,140.0,41.8,57.611,20.0,226.292,200.667,139.0,225.066,196.556,158.5,233.082,39.312,1,43,35,1Yr01bphWNORcb1H1Tv54d2K6HT2,-Mq9WVpRGu6EKYIjis7r,1638706582063,True,1,Deutsch,1,0,win32,KeyboardStudy_de,99,0.0
0,0,"['ShiftLeft', 'ShiftLeft', 'KeyB', 'KeyA', 'KeyL', 'KeyL', 'ShiftLeft', 'KeyO', 'KeyR', 'KeyA', 'KeyN', 'KeyG', 'KeyE', 'Digit3', 'Digit8', 'Digit2', 'Digit9', 'ShiftLeft', 'Digit1', 'Enter']","['Shift', 'Shift', 'b', 'a', 'l', 'l', 'Shift', 'o', 'r', 'a', 'n', 'g', 'e', '3', '8', '2', '9', 'Shift', '1', 'Enter']",['1'],20.0,0.0,0.0,4.0,5.687,175.1,168.0,51.626,115.0,89.0,172.126,290.211,240.0,162.964,281.526,248.0,179.048,43.679,1,58,42,1Yr01bphWNORcb1H1Tv54d2K6HT2,-Mq9jJtQ6I6bDchKKC-k,1638710203155,True,1,Deutsch,1,0,win32,KeyboardStudy_de,99,1.0
0,0,"['ShiftLeft', 'KeyB', 'KeyA', 'KeyL', 'KeyL', 'ShiftLeft', 'KeyO', 'KeyR', 'KeyA', 'KeyN', 'KeyG', 'KeyE', 'Digit3', 'Digit8', 'Digit2', 'Digit9', 'ShiftLeft', 'Digit1', 'Enter']","['Shift', 'b', 'a', 'l', 'l', 'Shift', 'o', 'r', 'a', 'n', 'g', 'e', '3', '8', '2', ')', 'Shift', '1', 'Enter']","[')', '1']",19.0,0.0,0.0,3.0,4.239,154.842,149.0,45.325,72.056,13.5,199.259,228.5,184.5,207.718,224.0,165.5,208.594,37.155,1,42,36,1Yr01bphWNORcb1H1Tv54d2K6HT2,-Mq9x6MjNkY5o_ecDyHU,1638713817738,True,1,Deutsch,1,0,win32,KeyboardStudy_de,99,0.0
0,0,"['ShiftLeft', 'KeyB', 'KeyA', 'KeyL', 'KeyL', 'ShiftLeft', 'KeyO', 'KeyR', 'KeyA', 'KeyN', 'KeyG', 'KeyE', 'Digit3', 'Digit8', 'Digit2', 'Digit9', 'ShiftLeft', 'Digit1', 'Enter']","['Shift', 'b', 'a', 'l', 'L', 'Shift', 'o', 'r', 'a', 'n', 'g', 'e', '3', '8', '2', '9', 'Shift', '1', 'Enter']","['L', '1']",19.0,0.0,0.0,3.0,3.329,147.053,145.0,42.009,29.722,-0.5,124.869,179.278,140.0,118.678,170.444,142.0,129.467,28.387,1,59,40,1Yr01bphWNORcb1H1Tv54d2K6HT2,-MqAqXYTNaS1xpThoLVQ,1638728871621,True,1,Deutsch,1,0,win32,KeyboardStudy_de,99,0.0
0,0,"['KeyB', 'ShiftLeft', 'KeyA', 'KeyL', 'KeyL', 'ShiftLeft', 'KeyO', 'KeyR', 'KeyA', 'KeyN', 'KeyG', 'KeyE', 'Digit3', 'Digit8', 'Digit2', 'Digit9', 'ShiftLeft', 'Digit1', 'Enter']","['B', 'Shift', 'a', 'l', 'L', 'Shift', 'o', 'r', 'a', 'n', 'g', 'e', '3', '8', '2', '9', 'Shift', '1', 'Enter']","['L', '1']",19.0,0.0,0.0,3.0,4.853,177.632,175.0,63.409,82.111,48.0,226.983,258.889,185.5,212.549,248.167,200.5,227.092,41.562,1,59,41,1Yr01bphWNORcb1H1Tv54d2K6HT2,-MqB3MAMeR1Mc7WEk6jU,1638732494989,True,1,Deutsch,1,0,win32,KeyboardStudy_de,99,0.0
0,0,"['ShiftLeft', 'KeyB', 'KeyA', 'KeyL', 'KeyL', 'ShiftLeft', 'KeyO', 'KeyR', 'KeyA', 'KeyN', 'KeyG', 'KeyE', 'Digit3', 'Digit8', 'Digit2', 'Digit9', 'ShiftLeft', 'Digit1', 'Enter']","['Shift', 'b', 'a', 'l', 'L', 'Shift', 'o', 'r', 'a', 'n', 'g', 'e', '3', '8', '2', '9', 'Shift', '1', 'Enter']","['L', '1']",19.0,0.0,0.0,3.0,5.315,165.474,146.0,65.777,120.611,29.5,231.078,285.722,209.0,213.077,279.222,200.0,226.46,46.717,1,34,24,1Yr01bphWNORcb1H1Tv54d2K6HT2,-MqBHFY3FxKZD-b2oSG6,1638736137815,True,1,Deutsch,1,0,win32,KeyboardStudy_de,99,0.0
0,0,"['ShiftLeft', 'KeyB', 'KeyA', 'KeyL', 'KeyL', 'ShiftLeft', 'KeyO', 'KeyR', 'KeyA', 'KeyN', 'KeyG', 'KeyE', 'Digit3', 'Digit8', 'Digit2', 'Digit9', 'ShiftLeft', 'Digit1', 'Enter']","['Shift', 'b', 'a', 'l', 'l', 'Shift', 'o', 'r', 'a', 'n', 'g', 'e', '3', '8', '2', '9', 'Shift', '1', 'Enter']",['1'],19.0,0.0,0.0,3.0,4.292,175.632,152.0,67.362,53.056,39.5,124.704,230.444,204.0,109.202,223.444,198.0,148.397,30.918,1,58,30,1Yr01bphWNORcb1H1Tv54d2K6HT2,-MqBXPfxDxMuPHQDn3Nu,1638740373626,True,1,Deutsch,1,0,win32,KeyboardStudy_de,99,0.0
0,0,"['ShiftLeft', 'KeyB', 'KeyA', 'KeyL', 'KeyL', 'ShiftRight', 'KeyO', 'KeyR', 'KeyA', 'KeyN', 'KeyG', 'KeyE', 'Digit3', 'Digit8', 'Digit2', 'Digit9', 'ShiftLeft', 'Digit1', 'Enter']","['Shift', 'b', 'a', 'l', 'l', 'Shift', 'o', 'r', 'a', 'n', 'g', 'e', '3', '8', '2', '9', 'Shift', '1', 'Enter']",['1'],19.0,0.0,0.0,3.0,10.088,172.579,112.0,145.549,378.278,398.0,374.669,550.889,516.5,328.621,523.444,510.5,411.028,70.063,1,35,58,1Yr01bphWNORcb1H1Tv54d2K6HT2,-MqDUEXVVzkkw2yLpAWC,1638773095921,True,1,Deutsch,1,0,win32,KeyboardStudy_de,99,0.0
0,0,"['KeyB', 'ShiftLeft', 'KeyA', 'KeyL', 'KeyL', 'ShiftLeft', 'KeyO', 'KeyR', 'KeyA', 'KeyN', 'KeyG', 'KeyE', 'Digit3', 'Digit8', 'Digit2', 'Digit9', 'ShiftLeft', 'Digit1', 'Enter']","['B', 'Shift', 'a', 'l', 'l', 'Shift', 'o', 'r', 'a', 'n', 'g', 'e', '3', '8', '2', ')', 'Shift', '1', 'Enter']","[')', '1']",19.0,0.0,0.0,3.0,2.905,158.105,152.0,47.107,-5.5,5.0,68.429,155.778,142.0,51.702,147.444,161.0,78.533,15.387,1,63,70,1Yr01bphWNORcb1H1Tv54d2K6HT2,-MqEW8F7u6OdPQUjoUTd,1638790371737,True,1,Deutsch,1,0,win32,KeyboardStudy_de,99,0.0
0,0,"['ShiftLeft', 'KeyB', 'KeyA', 'KeyL', 'KeyL', 'ShiftLeft', 'KeyO', 'KeyR', 'KeyA', 'KeyN', 'KeyG', 'KeyE', 'Digit3', 'Digit8', 'Digit2', 'Digit9', 'ShiftLeft', 'Digit1', 'Enter']","['Shift', 'b', 'a', 'l', 'l', 'Shift', 'o', 'r', 'a', 'n', 'g', 'e', '3', '8', '2', ')', 'Shift', '1', 'Enter']","[')', '1']",19.0,0.0,0.0,3.0,3.114,151.579,138.0,44.662,13.0,-1.0,98.963,165.722,135.0,98.156,159.833,160.0,114.539,23.121,1,73,57,1Yr01bphWNORcb1H1Tv54d2K6HT2,-MqEivDua78nnv3q7y8F,1638793984566,True,1,Deutsch,1,0,win32,KeyboardStudy_de,99,0.0
0,0,"['ShiftLeft', 'KeyB', 'KeyA', 'KeyL', 'KeyL', 'ShiftLeft', 'KeyO', 'KeyR', 'KeyA', 'KeyN', 'KeyG', 'KeyE', 'Digit3', 'Digit8', 'Digit2', 'Digit9', 'ShiftLeft', 'Digit1', 'Enter', 'KeyB', 'ShiftLeft', 'KeyA', 'KeyL', 'KeyL', 'ShiftLeft', 'KeyO', 'KeyR', 'KeyA', 'KeyN', 'KeyG', 'KeyE', 'Digit3', 'Digit8', 'Digit2', 'Digit9', 'ShiftLeft', 'Digit1', 'Enter']","['Shift', 'b', 'a', 'l', 'l', 'Shift', 'o', 'r', 'a', 'n', 'g', 'e', '3', '8', '2', '9', 'Shift', '1', 'Enter', 'B', 'Shift', 'a', 'l', 'l', 'Shift', 'o', 'r', 'a', 'n', 'g', 'e', '3', '8', '2', '9', 'Shift', '1', 'Enter']","['1', '1']",38.0,0.0,0.0,6.0,9.935,148.789,144.5,55.042,115.703,34.0,380.197,265.486,168.0,375.97,262.135,178.0,402.469,49.965,2,43,59,1Yr01bphWNORcb1H1Tv54d2K6HT2,-MqExsDwA-zKY_89iSI1,1638797904411,True,1,Deutsch,1,0,win32,KeyboardStudy_de,99,0.0
0,0,"['ShiftLeft', 'KeyB', 'KeyA', 'KeyL', 'KeyL', 'ShiftLeft', 'KeyO', 'KeyR', 'KeyA', 'KeyN', 'KeyG', 'KeyE', 'Digit3', 'Digit8', 'Digit2', 'Digit9', 'Digit1', 'ShiftLeft', 'Enter']","['Shift', 'b', 'a', 'l', 'l', 'Shift', 'o', 'r', 'a', 'n', 'g', 'e', '3', '8', '2', ')', '!', 'Shift', 'Enter']",[')'],19.0,0.0,0.0,3.0,4.295,162.579,152.0,67.19,67.0,36.0,160.093,232.278,183.5,140.982,223.944,227.0,163.586,38.487,1,42,42,1Yr01bphWNORcb1H1Tv54d2K6HT2,-MqFB-HB8PTjG3h3j7GO,1638801607368,True,1,Deutsch,1,0,win32,KeyboardStudy_de,99,0.0
0,0,"['ShiftLeft', 'KeyB', 'KeyA', 'KeyL', 'KeyL', 'ShiftLeft', 'KeyO', 'KeyR', 'KeyA', 'KeyN', 'KeyG', 'KeyE', 'Digit3', 'Digit8', 'Digit2', 'Digit9', 'ShiftLeft', 'Digit1', 'Enter']","['Shift', 'b', 'a', 'l', 'l', 'Shift', 'o', 'r', 'a', 'n', 'g', 'e', '3', '8', '2', ')', 'Shift', '1', 'Enter']","[')', '1']",19.0,0.0,0.0,3.0,3.045,135.579,125.0,40.032,26.056,-6.5,98.774,162.222,131.0,99.534,156.833,158.0,101.884,26.634,1,37,65,1Yr01bphWNORcb1H1Tv54d2K6HT2,-MqFlVLwZconrFCLeSFJ,1638811438669,True,1,Deutsch,1,0,win32,KeyboardStudy_de,99,0.0
0,0,"['ShiftLeft', 'KeyB', 'KeyA', 'KeyL', 'KeyL', 'ShiftLeft', 'KeyO', 'KeyR', 'KeyN', 'KeyA', 'KeyG', 'KeyE', 'Digit3', 'Digit8', 'Digit2', 'Digit9', 'ShiftLeft', 'Digit1', 'Enter']","['Shift', 'b', 'a', 'l', 'l', 'Shift', 'o', 'r', 'n', 'a', 'g', 'e', '3', '8', '2', ')', 'Shift', '1', 'Enter']","[')', '1']",19.0,0.0,0.0,3.0,3.086,143.316,139.0,44.019,20.167,-7.5,108.226,164.667,131.5,97.704,157.611,150.0,109.679,26.377,1,41,57,1Yr01bphWNORcb1H1Tv54d2K6HT2,-MqGHO2msXi-leNs4s7H,1638820059462,True,1,Deutsch,1,0,win32,KeyboardStudy_de,99,0.0
0,0,"['ShiftLeft', 'KeyB', 'KeyA', 'KeyL', 'KeyL', 'ShiftLeft', 'KeyO', 'KeyR', 'KeyA', 'KeyN', 'KeyG', 'KeyE', 'Digit3', 'Digit8', 'Digit2', 'Digit9', 'Digit1', 'ShiftLeft', 'Enter']","['Shift', 'b', 'a', 'l', 'l', 'Shift', 'o', 'r', 'a', 'n', 'g', 'e', '3', '8', '2', ')', '!', 'Shift', 'Enter']",[')'],19.0,0.0,0.0,3.0,4.131,166.789,148.0,71.919,53.444,19.0,206.164,224.333,180.0,202.669,209.278,193.5,209.206,38.102,1,61,55,1Yr01bphWNORcb1H1Tv54d2K6HT2,-MqK69BztW1z4icbzhAh,1638884224426,True,1,Deutsch,1,0,win32,KeyboardStudy_de,99,0.0
0,0,"['ShiftLeft', 'KeyB', 'KeyA', 'KeyL', 'KeyL', 'ShiftLeft', 'KeyO', 'KeyR', 'KeyA', 'KeyN', 'KeyG', 'KeyE', 'Digit3', 'Digit8', 'Digit2', 'Digit9', 'ShiftLeft', 'Digit1', 'Enter']","['Shift', 'b', 'a', 'l', 'L', 'Shift', 'o', 'r', 'a', 'n', 'g', 'e', '3', '8', '2', ')', 'Shift', '1', 'Enter']","['L', ')', '1']",19.0,0.0,0.0,3.0,3.836,159.474,160.0,41.002,44.778,-6.0,162.833,207.056,141.0,171.98,201.333,157.5,169.24,32.638,1,45,61,1Yr01bphWNORcb1H1Tv54d2K6HT2,-MqKpPE5fwOZUj07jeyM,1638896349017,True,1,Deutsch,1,0,win32,KeyboardStudy_de,99,0.0
0,0,"['ShiftLeft', 'KeyB', 'KeyA', 'KeyL', 'KeyL', 'ShiftLeft', 'KeyO', 'KeyR', 'KeyN', 'KeyA', 'KeyG', 'KeyE', 'Digit3', 'Digit8', 'Digit2', 'Digit9', 'ShiftLeft', 'Digit1', 'Enter']","['Shift', 'b', 'a', 'l', 'L', 'Shift', 'o', 'r', 'n', 'a', 'g', 'e', '3', '8', '2', ')', 'Shift', '1', 'Enter']","['L', ')', '1']",19.0,0.0,0.0,3.0,2.474,148.368,135.0,41.816,-19.167,-20.5,70.326,132.778,119.5,51.559,126.333,151.0,83.411,14.39,1,41,59,1Yr01bphWNORcb1H1Tv54d2K6HT2,-MqKyiMSZfSzBPhRPYM9,1638898790662,True,1,Deutsch,1,0,win32,KeyboardStudy_de,99,0.0
0,0,"['ShiftLeft', 'KeyB', 'KeyA', 'KeyL', 'KeyL', 'KeyO', 'ShiftLeft', 'KeyR', 'KeyA', 'KeyN', 'KeyG', 'KeyE', 'Digit3', 'Digit8', 'Digit2', 'Digit9', 'ShiftLeft', 'Digit1', 'Enter']","['Shift', 'b', 'a', 'l', 'l', 'O', 'Shift', 'r', 'a', 'n', 'g', 'e', '3', '8', '2', '9', 'Shift', '1', 'Enter']",['1'],19.0,0.0,0.0,3.0,3.711,152.158,146.0,52.239,45.556,49.0,112.798,200.389,175.5,102.112,192.389,198.0,123.076,34.088,1,59,57,1Yr01bphWNORcb1H1Tv54d2K6HT2,-MqLBVRnObi0xeW7vBbg,1638902403635,True,1,Deutsch,1,0,win32,KeyboardStudy_de,99,0.0
0,0,"['ShiftLeft', 'KeyB', 'KeyA', 'KeyL', 'KeyL', 'ShiftLeft', 'KeyO', 'KeyR', 'KeyA', 'KeyN', 'KeyG', 'KeyE', 'Digit3', 'Digit8', 'Digit2', 'Digit9', 'ShiftLeft', 'Digit1', 'Enter']","['Shift', 'b', 'a', 'l', 'L', 'Shift', 'o', 'r', 'a', 'n', 'g', 'e', '3', '8', '2', ')', 'Shift', '1', 'Enter']","['L', ')', '1']",19.0,0.0,0.0,3.0,4.697,159.579,148.0,47.202,92.5,17.0,237.261,254.056,170.0,227.357,246.778,170.0,237.085,43.666,1,61,31,1Yr01bphWNORcb1H1Tv54d2K6HT2,-MqLQZOwiWUsze9d-9Lx,1638906351966,True,1,Deutsch,1,0,win32,KeyboardStudy_de,99,0.0
0,0,"['ShiftLeft', 'KeyB', 'KeyA', 'KeyL', 'KeyL', 'ShiftLeft', 'KeyO', 'KeyR', 'KeyA', 'KeyN', 'KeyG', 'KeyE', 'Digit3', 'Digit8', 'Digit2', 'Digit9', 'ShiftLeft', 'Digit1', 'Enter']","['Shift', 'b', 'a', 'l', 'L', 'Shift', 'o', 'r', 'a', 'n', 'g', 'e', '3', '8', '2', ')', 'Shift', '1', 'Enter']","['L', ')', '1']",19.0,0.0,0.0,3.0,3.093,168.158,172.0,45.704,-5.667,-24.0,82.174,168.278,138.5,77.963,158.444,158.5,96.829,17.782,1,61,40,1Yr01bphWNORcb1H1Tv54d2K6HT2,-MqMaXQh0_UTHIB22AAN,1638926004607,True,1,Deutsch,1,0,win32,KeyboardStudy_de,99,0.0
0,0,"['ShiftLeft', 'KeyB', 'KeyA', 'KeyL', 'KeyL', 'ShiftLeft', 'KeyO', 'KeyR', 'KeyA', 'KeyN', 'KeyG', 'KeyE', 'Digit3', 'Digit8', 'Digit2', 'Digit9', 'ShiftLeft', 'Digit1', 'ShiftRight', 'Enter']","['Shift', 'b', 'a', 'l', 'l', 'Shift', 'o', 'r', 'a', 'n', 'g', 'e', '3', '8', '2', ')', 'Shift', '1', 'Shift', 'Enter']","[')', '1']",20.0,0.0,0.0,4.0,6.95,175.8,175.0,49.441,180.737,44.0,392.691,354.0,210.0,400.23,353.789,235.0,403.431,56.489,1,39,56,1Yr01bphWNORcb1H1Tv54d2K6HT2,-MqO0kedKkWAzdubfuRX,1638949918964,True,1,Deutsch,1,0,win32,KeyboardStudy_de,99,1.0
0,0,"['KeyB', 'ShiftLeft', 'KeyA', 'KeyL', 'KeyL', 'ShiftLeft', 'KeyO', 'KeyR', 'KeyA', 'KeyN', 'KeyG', 'KeyE', 'Digit3', 'Digit8', 'Digit2', 'Digit9', 'ShiftLeft', 'Digit1', 'Enter', 'ShiftLeft', 'KeyB', 'KeyA', 'KeyL', 'KeyL', 'ShiftLeft', 'KeyO', 'KeyR', 'KeyA', 'KeyN', 'KeyG', 'KeyE', 'Digit3', 'Digit8', 'Digit2', 'Digit9', 'ShiftLeft', 'Digit1', 'Enter']","['B', 'Shift', 'a', 'l', 'L', 'Shift', 'o', 'r', 'a', 'n', 'g', 'e', '3', '8', '2', ')', 'Shift', '1', 'Enter', 'Shift', 'b', 'a', 'l', 'l', 'Shift', 'o', 'r', 'a', 'n', 'g', 'e', '3', '8', '2', ')', 'Shift', '1', 'Enter']","['L', ')', '1', ')', '1']",38.0,0.0,0.0,6.0,8.998,162.158,150.0,46.717,76.649,-9.0,426.356,238.838,132.0,419.354,235.973,141.0,434.163,48.511,2,55,61,1Yr01bphWNORcb1H1Tv54d2K6HT2,-MqOEZyu9rZZO_kqfOS5,1638953537438,True,1,Deutsch,1,0,win32,KeyboardStudy_de,99,0.0
0,0,"['ShiftLeft', 'KeyB', 'KeyA', 'KeyL', 'KeyL', 'ShiftLeft', 'KeyO', 'KeyR', 'KeyA', 'KeyN', 'KeyG', 'KeyE', 'Digit3', 'Digit8', 'Digit2', 'Digit9', 'ShiftLeft', 'Digit1', 'Enter']","['Shift', 'b', 'a', 'l', 'L', 'Shift', 'o', 'r', 'a', 'n', 'g', 'e', '3', '8', '2', ')', 'Shift', '1', 'Enter']","['L', ')', '1']",19.0,0.0,0.0,3.0,2.937,148.947,145.0,35.742,5.944,-18.5,82.307,154.667,132.0,71.641,150.778,149.0,75.172,22.506,1,37,62,1Yr01bphWNORcb1H1Tv54d2K6HT2,-MqOSMZqUPcHmoWkN45A,1638957152508,True,1,Deutsch,1,0,win32,KeyboardStudy_de,99,0.0
0,0,"['ShiftLeft', 'KeyB', 'KeyA', 'KeyL', 'KeyL', 'ShiftLeft', 'KeyO', 'KeyR', 'KeyA', 'KeyN', 'KeyG', 'KeyE', 'Digit3', 'Digit8', 'Digit2', 'Digit9', 'ShiftLeft', 'Digit1', 'Enter']","['Shift', 'b', 'a', 'l', 'l', 'Shift', 'o', 'r', 'a', 'n', 'g', 'e', '3', '8', '2', '9', 'Shift', '1', 'Enter']",['1'],19.0,0.0,0.0,3.0,3.709,155.474,161.0,34.651,41.944,-11.0,155.772,199.111,134.0,143.979,195.889,154.0,163.499,36.56,1,62,64,1Yr01bphWNORcb1H1Tv54d2K6HT2,-MqOlQ6Mm2JMl-eIpoLI,1638962409852,True,1,Deutsch,1,0,win32,KeyboardStudy_de,99,0.0
0,0,"['ShiftLeft', 'KeyB', 'KeyA', 'KeyL', 'KeyL', 'ShiftLeft', 'KeyO', 'KeyR', 'KeyA', 'KeyN', 'KeyG', 'KeyE', 'Digit3', 'Digit8', 'Digit2', 'Digit9', 'ShiftLeft', 'Digit1', 'Enter']","['Shift', 'b', 'a', 'l', 'l', 'Shift', 'o', 'r', 'a', 'n', 'g', 'e', '3', '8', '2', ')', 'Shift', '1', 'Enter']","[')', '1']",19.0,0.0,0.0,3.0,2.874,158.158,149.0,42.674,-7.278,-28.0,82.462,153.333,121.0,77.324,145.611,129.0,90.22,17.989,1,75,65,1Yr01bphWNORcb1H1Tv54d2K6HT2,-MqOzByQdvteokA4EWNe,1638966021919,True,1,Deutsch,1,0,win32,KeyboardStudy_de,99,0.0
0,0,"['KeyB', 'ShiftLeft', 'KeyL', 'KeyA', 'KeyL', 'ShiftLeft', 'KeyO', 'KeyR', 'KeyA', 'KeyN', 'KeyG', 'KeyE', 'Digit3', 'Digit8', 'Digit2', 'Digit9', 'ShiftLeft', 'Digit1', 'Enter', 'ShiftLeft', 'KeyB', 'KeyA', 'KeyL', 'KeyL', 'ShiftLeft', 'KeyO', 'KeyR', 'KeyA', 'KeyN', 'KeyG', 'KeyE', 'Digit3', 'Digit8', 'Digit2', 'Digit9', 'ShiftLeft', 'Digit1', 'Enter', 'ShiftLeft', 'KeyB', 'KeyA', 'KeyL', 'KeyL', 'ShiftLeft', 'KeyO', 'KeyR', 'KeyA', 'KeyN', 'KeyG', 'KeyE', 'Digit3', 'Digit8', 'Digit2', 'Digit9', 'ShiftLeft', 'Digit1', 'Enter', 'ShiftLeft', 'KeyB', 'KeyA', 'KeyL', 'KeyL', 'ShiftLeft', 'KeyO', 'KeyR', 'KeyA', 'KeyN', 'KeyG', 'KeyE', 'Digit3', 'Digit8', 'Digit2', 'Digit9', 'ShiftLeft', 'Digit1', 'Enter']","['B', 'Shift', 'l', 'a', 'L', 'Shift', 'o', 'r', 'a', 'n', 'g', 'e', '3', '8', '2', ')', 'Shift', '1', 'Enter', 'Shift', 'b', 'a', 'l', 'l', 'Shift', 'o', 'r', 'a', 'n', 'g', 'e', '3', '8', '2', ')', 'Shift', '1', 'Enter', 'Shift', 'b', 'a', 'l', 'l', 'Shift', 'o', 'r', 'a', 'n', 'g', 'e', '3', '8', '2', ')', 'Shift', '1', 'Enter', 'Shift', 'b', 'a', 'l', 'l', 'Shift', 'o', 'r', 'a', 'n', 'g', 'e', '3', '8', '2', '9', 'Shift', '1', 'Enter']","['L', ')', '1', ')', '1', ')', '1', '1']",76.0,0.0,0.0,12.0,19.758,160.289,148.0,57.836,101.013,-5.0,456.957,262.093,136.0,446.279,260.267,166.0,488.843,51.66,4,40,34,1Yr01bphWNORcb1H1Tv54d2K6HT2,-MqPEPIntic-yZw1c-sZ,1638970270803,True,1,Deutsch,1,0,win32,KeyboardStudy_de,99,0.0
0,0,"['KeyB', 'ShiftLeft', 'KeyA', 'KeyL', 'KeyL', 'ShiftLeft', 'KeyO', 'KeyR', 'KeyA', 'KeyN', 'KeyG', 'KeyE', 'Digit3', 'Digit8', 'Digit2', 'Digit9', 'ShiftLeft', 'Digit1', 'Enter']","['B', 'Shift', 'a', 'l', 'l', 'Shift', 'o', 'r', 'a', 'n', 'g', 'e', '3', '8', '2', ')', 'Shift', '1', 'Enter']","[')', '1']",19.0,0.0,0.0,3.0,3.821,152.105,151.0,44.451,51.722,-13.0,289.999,203.5,127.0,295.82,201.278,143.0,290.794,40.487,1,33,61,1Yr01bphWNORcb1H1Tv54d2K6HT2,-MqPSE9qHSkdFPn0gNh8,1638973895165,True,1,Deutsch,1,0,win32,KeyboardStudy_de,99,0.0
0,0,"['ShiftLeft', 'KeyB', 'KeyA', 'KeyL', 'KeyL', 'ShiftLeft', 'KeyR', 'KeyO', 'KeyA', 'KeyN', 'KeyG', 'KeyE', 'Digit3', 'Digit8', 'ShiftLeft', 'Digit2', 'Digit9', 'Enter', 'ShiftLeft', 'KeyB', 'KeyA', 'KeyL', 'KeyL', 'ShiftLeft', 'KeyO', 'KeyR', 'KeyN', 'KeyA', 'KeyG', 'KeyE', 'Digit3', 'Digit8', 'Digit2', 'Digit9', 'ShiftLeft', 'Digit1', 'Enter']","['Shift', 'b', 'a', 'l', 'L', 'Shift', 'r', 'o', 'a', 'n', 'g', 'e', '3', '8', 'Shift', '2', '9', 'Enter', 'Shift', 'b', 'a', 'l', 'l', 'Shift', 'o', 'r', 'n', 'a', 'g', 'e', '3', '8', '2', ')', 'Shift', '1', 'Enter']","['L', ')', '1']",37.0,0.0,0.0,6.0,7.875,164.784,160.0,44.134,49.389,-10.0,289.876,215.306,151.0,285.555,212.25,168.0,304.667,38.794,2,55,64,1Yr01bphWNORcb1H1Tv54d2K6HT2,-MqPfZVXBFcePtvqkvUl,1638977652548,True,1,Deutsch,1,0,win32,KeyboardStudy_de,99,-1.0
0,0,"['KeyB', 'ShiftLeft', 'KeyA', 'Backspace', 'KeyA', 'KeyL', 'KeyL', 'ShiftLeft', 'KeyO', 'KeyR', 'KeyA', 'KeyN', 'KeyG', 'KeyE', 'Digit3', 'Digit8', 'Digit2', 'ShiftLeft', 'Digit9', 'ShiftLeft', 'Digit1', 'Enter', 'ShiftLeft', 'KeyB', 'KeyA', 'KeyL', 'KeyL', 'ShiftLeft', 'KeyO', 'KeyR', 'KeyA', 'KeyN', 'KeyG', 'KeyE', 'Digit3', 'Digit8', 'Digit2', 'Digit9', 'ShiftLeft', 'Digit1', 'Enter']","['B', 'Shift', 'a', 'Backspace', 'a', 'l', 'l', 'Shift', 'o', 'r', 'a', 'n', 'g', 'e', '3', '8', '""', 'Shift', '9', 'Shift', '1', 'Enter', 'Shift', 'b', 'a', 'l', 'l', 'Shift', 'o', 'r', 'a', 'n', 'g', 'e', '3', '8', '2', ')', 'Shift', '1', 'Enter']","['""', '1', ')', '1']",41.0,1.0,0.0,7.0,10.513,147.146,127.0,62.767,112.0,7.0,373.684,260.325,138.0,361.188,252.425,145.0,381.518,51.869,2,60,60,1Yr01bphWNORcb1H1Tv54d2K6HT2,-MqPtNSOLXciEcUpklmV,1638981273181,True,1,Deutsch,1,0,win32,KeyboardStudy_de,99,2.0
0,0,"['ShiftLeft', 'KeyB', 'KeyA', 'KeyL', 'KeyL', 'ShiftLeft', 'KeyO', 'KeyR', 'KeyA', 'KeyN', 'KeyG', 'KeyE', 'Digit3', 'Digit8', 'Digit2', 'Digit9', 'ShiftLeft', 'Digit1', 'Enter']","['Shift', 'b', 'a', 'l', 'L', 'Shift', 'o', 'r', 'a', 'n', 'g', 'e', '3', '8', '2', '9', 'Shift', '1', 'Enter']","['L', '1']",19.0,0.0,0.0,3.0,3.543,152.895,136.0,45.457,35.444,23.5,126.808,190.056,140.5,118.725,183.778,166.5,122.119,31.245,1,58,62,1Yr01bphWNORcb1H1Tv54d2K6HT2,-MqQ6I53YqUo6CBG6NuR,1638984921203,True,1,Deutsch,1,0,win32,KeyboardStudy_de,99,0.0
0,0,"['ShiftLeft', 'KeyB', 'KeyA', 'KeyL', 'KeyL', 'ShiftLeft', 'KeyO', 'KeyR', 'KeyA', 'KeyN', 'KeyG', 'KeyE', 'Digit3', 'Digit8', 'Digit2', 'Digit9', 'ShiftLeft', 'Digit1', 'Enter']","['Shift', 'b', 'a', 'l', 'L', 'Shift', 'o', 'r', 'a', 'n', 'g', 'e', '3', '8', '2', '9', 'Shift', '1', 'Enter']","['L', '1']",19.0,0.0,0.0,3.0,3.441,153.158,135.0,42.049,29.5,-10.5,98.128,184.611,145.0,93.962,178.0,164.0,94.253,27.23,1,57,60,1Yr01bphWNORcb1H1Tv54d2K6HT2,-MqQK49hw-4OKAcxscXY,1638988534153,True,1,Deutsch,1,0,win32,KeyboardStudy_de,99,0.0
0,0,"['ShiftLeft', 'KeyB', 'KeyA', 'KeyL', 'KeyL', 'ShiftLeft', 'KeyO', 'KeyR', 'KeyA', 'KeyN', 'KeyG', 'KeyE', 'Digit3', 'Digit8', 'Digit2', 'Digit9', 'ShiftLeft', 'Digit1', 'Enter']","['Shift', 'b', 'a', 'l', 'L', 'Shift', 'o', 'r', 'a', 'n', 'g', 'e', '3', '8', '2', ')', 'Shift', '1', 'Enter']","['L', ')', '1']",19.0,0.0,0.0,3.0,3.756,149.632,141.0,39.094,50.722,-6.5,137.633,200.556,146.5,136.731,194.722,160.5,128.439,35.437,1,72,60,1Yr01bphWNORcb1H1Tv54d2K6HT2,-MqQXsfuWz7aq-38EiCB,1638992153002,True,1,Deutsch,1,0,win32,KeyboardStudy_de,99,0.0
0,0,"['ShiftLeft', 'KeyB', 'KeyA', 'KeyL', 'KeyL', 'ShiftLeft', 'KeyO', 'KeyR', 'KeyA', 'KeyN', 'KeyG', 'KeyE', 'Digit3', 'Digit8', 'Digit2', 'Digit9', 'ShiftLeft', 'Digit1', 'Enter']","['Shift', 'b', 'a', 'l', 'l', 'Shift', 'o', 'r', 'a', 'n', 'g', 'e', '3', '8', '2', '9', 'Shift', '1', 'Enter']",['1'],19.0,0.0,0.0,3.0,4.676,159.842,142.0,48.532,91.056,23.0,233.589,253.389,165.0,219.256,246.556,170.0,262.239,43.627,1,62,62,1Yr01bphWNORcb1H1Tv54d2K6HT2,-MqQuoWkAimpRMNxy097,1638998427422,True,1,Deutsch,1,0,win32,KeyboardStudy_de,99,0.0
0,0,"['ShiftLeft', 'KeyB', 'KeyA', 'KeyL', 'KeyL', 'ShiftLeft', 'KeyO', 'KeyR', 'KeyA', 'KeyN', 'KeyG', 'KeyE', 'Digit3', 'Digit8', 'Digit2', 'Digit9', 'ShiftLeft', 'Digit1', 'Enter']","['Shift', 'b', 'a', 'l', 'l', 'Shift', 'o', 'r', 'a', 'n', 'g', 'e', '3', '8', '2', ')', 'Shift', '1', 'Enter']","[')', '1']",19.0,0.0,0.0,3.0,4.306,182.684,156.0,120.042,46.389,29.0,142.618,230.389,171.5,150.061,202.167,188.0,133.555,31.073,1,60,65,1Yr01bphWNORcb1H1Tv54d2K6HT2,-MqR8dUbZhG3LyayfNkW,1639002314513,True,1,Deutsch,1,0,win32,KeyboardStudy_de,99,0.0
0,0,"['ShiftLeft', 'KeyB', 'KeyA', 'KeyL', 'KeyL', 'ShiftLeft', 'KeyO', 'KeyR', 'KeyA', 'KeyG', 'KeyE', 'Backspace', 'KeyB', 'ShiftLeft', 'KeyA', 'KeyL', 'Backspace', 'Backspace', 'Backspace', 'ShiftLeft', 'KeyB', 'KeyA', 'KeyL', 'KeyL', 'ShiftLeft', 'KeyO', 'KeyR', 'KeyA', 'KeyN', 'KeyE', 'Digit3', 'Digit8', 'Digit2', 'Digit9', 'ShiftLeft', 'Digit1', 'Enter', 'ShiftLeft', 'KeyB', 'KeyA', 'KeyL', 'KeyL', 'ShiftLeft', 'KeyO', 'KeyR', 'KeyA', 'KeyN', 'KeyG', 'KeyE', 'Digit3', 'Digit8', 'Digit2', 'Digit9', 'ShiftLeft', 'Digit1', 'BracketRight', 'Backspace', 'Enter']","['Shift', 'b', 'a', 'l', 'L', 'Shift', 'o', 'r', 'a', 'g', 'e', 'Backspace', 'B', 'Shift', 'a', 'l', 'Backspace', 'Backspace', 'Backspace', 'Shift', 'b', 'a', 'l', 'l', 'Shift', 'o', 'r', 'a', 'n', 'e', '3', '8', '2', '9', 'Shift', '1', 'Enter', 'Shift', 'b', 'a', 'l', 'l', 'Shift', 'o', 'r', 'a', 'n', 'g', 'e', '3', '8', '2', ')', 'Shift', '1', '+', 'Backspace', 'Enter']","['L', '1', ')', '1', '+']",58.0,5.0,0.0,9.0,17.494,167.121,145.0,115.236,136.86,30.0,378.433,304.772,159.0,391.576,303.105,180.0,431.656,52.161,2,60,42,1Yr01bphWNORcb1H1Tv54d2K6HT2,-MqRgnWgB85zXCXPpOaW,1639011530561,True,1,Deutsch,1,0,win32,KeyboardStudy_de,99,15.0
0,0,"['ShiftLeft', 'KeyB', 'KeyA', 'KeyL', 'KeyL', 'ShiftLeft', 'KeyO', 'KeyR', 'KeyA', 'KeyN', 'KeyG', 'KeyE', 'Digit3', 'Digit8', 'Digit2', 'Digit9', 'ShiftLeft', 'Digit1', 'Enter']","['Shift', 'b', 'a', 'l', 'l', 'Shift', 'o', 'r', 'a', 'n', 'g', 'e', '3', '8', '2', ')', 'Shift', '1', 'Enter']","[')', '1']",19.0,0.0,0.0,3.0,3.172,161.789,150.0,46.102,5.444,7.0,69.899,168.889,146.5,59.381,164.222,165.5,80.706,17.844,1,33,62,1Yr01bphWNORcb1H1Tv54d2K6HT2,-MqTY0a3INdI2p5n-R0A,1639042523606,True,1,Deutsch,1,0,win32,KeyboardStudy_de,99,0.0
0,0,"['ShiftLeft', 'KeyB', 'KeyA', 'KeyL', 'KeyL', 'ShiftLeft', 'KeyO', 'KeyR', 'KeyA', 'KeyN', 'KeyG', 'KeyE', 'Digit2', 'Backspace', 'Digit3', 'Digit8', 'Digit2', 'Digit9', 'ShiftLeft', 'Digit1', 'Enter']","['Shift', 'b', 'a', 'l', 'l', 'Shift', 'o', 'r', 'a', 'n', 'g', 'e', '2', 'Backspace', '3', '8', '2', ')', 'Shift', '1', 'Enter']","[')', '1']",21.0,1.0,0.0,3.0,4.758,162.905,161.0,49.161,66.85,-17.0,261.586,230.95,146.0,246.6,225.55,172.0,283.96,43.8,1,79,63,1Yr01bphWNORcb1H1Tv54d2K6HT2,-MqTuJWp-Hh2wvGT7ZGR,1639048629521,True,1,Deutsch,1,0,win32,KeyboardStudy_de,99,1.0
0,0,"['ShiftLeft', 'KeyB', 'KeyA', 'KeyK', 'KeyK', 'ShiftLeft', 'KeyO', 'KeyR', 'Backspace', 'Backspace', 'Backspace', 'Backspace', 'Backspace', 'Backspace', 'KeyB', 'ShiftLeft', 'KeyA', 'KeyL', 'KeyL', 'ShiftLeft', 'KeyO', 'KeyR', 'KeyN', 'KeyA', 'KeyG', 'KeyE', 'Digit3', 'Digit8', 'ShiftLeft', 'Digit2', 'Digit9', 'Digit1', 'ShiftLeft', 'Enter', 'ShiftLeft', 'KeyN', 'KeyA', 'Backspace', 'Backspace', 'ShiftLeft', 'KeyB', 'KeyA', 'KeyL', 'KeyL', 'ShiftLeft', 'KeyO', 'KeyR', 'KeyN', 'KeyA', 'KeyG', 'KeyE', 'Digit3', 'Digit8', 'Digit2', 'Digit9', 'ShiftLeft', 'Digit1', 'Enter']","['Shift', 'b', 'a', 'k', 'k', 'Shift', 'o', 'r', 'Backspace', 'Backspace', 'Backspace', 'Backspace', 'Backspace', 'Backspace', 'B', 'Shift', 'a', 'l', 'l', 'Shift', 'o', 'r', 'n', 'a', 'g', 'e', '3', '8', 'Shift', '2', '9', '1', 'Shift', 'Enter', 'Shift', 'n', 'a', 'Backspace', 'Backspace', 'Shift', 'b', 'a', 'l', 'l', 'Shift', 'o', 'r', 'n', 'a', 'g', 'e', '3', '8', '2', '9', 'Shift', '1', 'Enter']","['k', 'k', '1', '1']",58.0,8.0,0.0,10.0,12.235,153.448,136.0,55.167,58.509,12.0,253.1,212.632,144.0,244.144,210.614,153.0,270.151,40.507,2,40,76,1Yr01bphWNORcb1H1Tv54d2K6HT2,-MqUHFSLjppEoEbrFmin,1639054904261,True,1,Deutsch,1,0,win32,KeyboardStudy_de,99,12.0
0,0,"['ShiftLeft', 'KeyB', 'KeyA', 'KeyL', 'KeyL', 'ShiftLeft', 'KeyO', 'KeyR', 'KeyA', 'KeyN', 'KeyG', 'KeyE', 'Digit3', 'Digit8', 'Digit2', 'Digit9', 'ShiftLeft', 'Digit1', 'Enter']","['Shift', 'b', 'a', 'l', 'L', 'Shift', 'o', 'r', 'a', 'n', 'g', 'e', '3', '8', '2', ')', 'Shift', '1', 'Enter']","['L', ')', '1']",19.0,0.0,0.0,3.0,3.001,165.316,146.0,50.68,-7.778,-18.5,88.871,160.278,142.0,80.914,152.222,158.5,102.352,18.76,1,59,66,1Yr01bphWNORcb1H1Tv54d2K6HT2,-MqVBTZXOlc-NMmDdMYn,1639070165621,True,1,Deutsch,1,0,win32,KeyboardStudy_de,99,0.0
0,0,"['ShiftLeft', 'KeyB', 'KeyA', 'KeyL', 'KeyL', 'ShiftLeft', 'KeyO', 'KeyR', 'KeyA', 'KeyN', 'KeyG', 'KeyE', 'Digit3', 'Digit8', 'Digit2', 'Digit9', 'ShiftLeft', 'Digit1', 'Enter']","['Shift', 'b', 'a', 'l', 'L', 'Shift', 'o', 'r', 'a', 'n', 'g', 'e', '3', '8', '2', ')', 'Shift', '1', 'Enter']","['L', ')', '1']",19.0,0.0,0.0,3.0,2.821,164.0,162.0,52.207,-16.389,-20.0,69.328,151.056,137.0,43.248,146.889,160.5,88.158,12.123,1,72,75,1Yr01bphWNORcb1H1Tv54d2K6HT2,-MqVBzdO_ipelydMpPf7,1639070301003,True,1,Deutsch,1,0,win32,KeyboardStudy_de,99,0.0
0,0,"['KeyB', 'ShiftLeft', 'KeyA', 'KeyL', 'KeyL', 'ShiftLeft', 'KeyO', 'KeyR', 'KeyA', 'KeyN', 'KeyG', 'KeyE', 'Digit3', 'Digit8', 'Digit2', 'Digit9', 'ShiftLeft', 'Digit1', 'Enter']","['B', 'Shift', 'a', 'l', 'l', 'Shift', 'o', 'r', 'a', 'n', 'g', 'e', '3', '8', '2', '9', 'Shift', '1', 'Enter']",['1'],19.0,0.0,0.0,3.0,4.823,179.263,159.0,72.524,78.722,34.5,233.138,260.278,176.0,219.487,251.0,194.0,250.342,40.245,1,63,66,1Yr01bphWNORcb1H1Tv54d2K6HT2,-MqVNGd6ckXMa_ZztmG-,1639073257984,True,1,Deutsch,1,0,win32,KeyboardStudy_de,99,0.0
0,0,"['ShiftLeft', 'KeyB', 'KeyA', 'KeyL', 'KeyL', 'ShiftLeft', 'KeyO', 'KeyR', 'KeyA', 'KeyN', 'KeyG', 'KeyE', 'Digit3', 'Digit8', 'Digit2', 'ShiftLeft', 'Digit9', 'ShiftLeft', 'Digit1', 'Enter']","['Shift', 'b', 'a', 'l', 'L', 'Shift', 'o', 'r', 'a', 'n', 'g', 'e', '3', '8', '""', 'Shift', '9', 'Shift', '1', 'Enter']","['L', '""', '1']",20.0,0.0,0.0,4.0,4.859,176.85,156.5,69.249,69.579,-9.0,201.461,248.632,147.0,234.018,235.947,170.0,187.6,36.859,1,61,68,1Yr01bphWNORcb1H1Tv54d2K6HT2,-MqVYurVtw8iaca9ekmd,1639076310650,True,1,Deutsch,1,0,win32,KeyboardStudy_de,99,1.0
0,0,"['ShiftLeft', 'KeyB', 'ShiftLeft', 'KeyA', 'KeyL', 'KeyL', 'ShiftLeft', 'KeyO', 'KeyR', 'KeyA', 'KeyN', 'KeyG', 'KeyE', 'Digit3', 'Digit8', 'Digit2', 'Digit9', 'ShiftLeft', 'Digit1', 'Enter']","['Shift', 'B', 'Shift', 'a', 'l', 'l', 'Shift', 'o', 'r', 'a', 'n', 'g', 'e', '3', '8', '2', ')', 'Shift', '1', 'Enter']","[')', '1']",20.0,0.0,0.0,4.0,4.305,175.15,154.0,64.496,42.211,-10.0,135.542,218.368,163.0,129.984,214.421,181.0,178.636,31.521,1,75,74,1Yr01bphWNORcb1H1Tv54d2K6HT2,-MqVqPRJC_UTY6wj_Uek,1639081158542,True,1,Deutsch,1,0,win32,KeyboardStudy_de,99,1.0
0,0,"['ShiftLeft', 'KeyB', 'KeyA', 'KeyL', 'KeyL', 'ShiftLeft', 'KeyO', 'KeyR', 'KeyA', 'KeyN', 'KeyG', 'KeyE', 'Digit3', 'Digit8', 'Digit2', 'Digit9', 'ShiftLeft', 'Digit1', 'Enter']","['Shift', 'b', 'a', 'l', 'L', 'Shift', 'o', 'r', 'a', 'n', 'g', 'e', '3', '8', '2', ')', 'Shift', '1', 'Enter']","['L', ')', '1']",19.0,0.0,0.0,3.0,3.27,152.211,146.0,50.064,21.0,-12.5,98.029,174.778,131.0,92.747,167.278,158.0,97.818,25.902,1,81,71,1Yr01bphWNORcb1H1Tv54d2K6HT2,-MqVxJStpVS3Rblxhov6,1639082969312,True,1,Deutsch,1,0,win32,KeyboardStudy_de,99,0.0
0,0,"['ShiftLeft', 'KeyB', 'KeyA', 'KeyL', 'KeyL', 'ShiftLeft', 'KeyO', 'KeyR', 'KeyA', 'KeyN', 'KeyG', 'KeyE', 'Digit3', 'Digit8', 'Digit2', 'Digit9', 'ShiftLeft', 'Digit1', 'Enter']","['Shift', 'b', 'a', 'l', 'l', 'Shift', 'o', 'r', 'a', 'n', 'g', 'e', '3', '8', '2', ')', 'Shift', '1', 'Enter']","[')', '1']",19.0,0.0,0.0,3.0,3.59,159.842,140.0,52.824,30.722,10.0,106.19,189.667,146.0,98.148,185.944,167.5,96.099,25.543,1,76,60,1Yr01bphWNORcb1H1Tv54d2K6HT2,-MqWAJCxrUQ746sCF_aM,1639086638295,True,1,Deutsch,1,0,win32,KeyboardStudy_de,99,0.0
0,0,"['ShiftLeft', 'KeyB', 'KeyA', 'KeyL', 'KeyL', 'ShiftLeft', 'KeyO', 'KeyR', 'KeyA', 'KeyN', 'KeyG', 'KeyE', 'Digit3', 'Digit8', 'Digit2', 'Digit9', 'ShiftLeft', 'Digit1', 'Enter']","['Shift', 'b', 'a', 'l', 'l', 'Shift', 'o', 'r', 'a', 'n', 'g', 'e', '3', '8', '2', ')', 'Shift', '1', 'Enter']","[')', '1']",19.0,0.0,0.0,3.0,3.409,178.474,171.0,41.993,1.0,1.5,71.574,179.889,175.5,50.089,174.5,174.5,86.754,16.544,1,73,67,1Yr01bphWNORcb1H1Tv54d2K6HT2,-MqWXYdAa3h1EuQDL-5M,1639092730740,True,1,Deutsch,1,0,win32,KeyboardStudy_de,99,0.0
0,0,"['ShiftLeft', 'KeyB', 'KeyA', 'KeyL', 'KeyL', 'ShiftLeft', 'KeyO', 'KeyR', 'KeyA', 'KeyN', 'KeyG', 'KeyE', 'Digit3', 'Digit8', 'Digit2', 'Digit9', 'ShiftLeft', 'Enter', 'Digit1']","['Shift', 'b', 'a', 'l', 'l', 'Shift', 'o', 'r', 'a', 'n', 'g', 'e', '3', '8', '2', ')', 'Shift', 'Enter', '1']","[')', '1']",19.0,0.0,0.0,3.0,3.184,163.947,157.0,48.137,3.278,-12.0,102.829,169.333,122.5,107.241,162.889,156.0,90.202,20.791,1,72,66,1Yr01bphWNORcb1H1Tv54d2K6HT2,-MqYe-VgrzApbxdCUMlJ,1639128238875,True,1,Deutsch,1,0,win32,KeyboardStudy_de,99,0.0
0,0,"['KeyB', 'ShiftLeft', 'KeyA', 'KeyL', 'KeyL', 'ShiftLeft', 'KeyO', 'KeyR', 'KeyA', 'KeyN', 'KeyG', 'KeyE', 'Digit3', 'Digit8', 'Digit2', 'Digit9', 'ShiftLeft', 'Digit1', 'Enter', 'Digit1', 'KeyB', 'ShiftLeft', 'KeyA', 'KeyL', 'KeyL', 'ShiftLeft', 'KeyO', 'KeyR', 'KeyN', 'KeyA', 'KeyG', 'KeyE', 'Digit3', 'Digit8', 'Digit2', 'Digit9', 'ShiftLeft', 'Enter', 'Digit1', 'KeyB', 'ShiftLeft', 'KeyA', 'KeyL', 'KeyL', 'ShiftLeft', 'KeyO', 'KeyR', 'KeyA', 'KeyN', 'KeyG', 'KeyE', 'Digit3', 'Digit8', 'Digit2', 'Digit9', 'ShiftLeft', 'Digit1', 'Enter']","['B', 'Shift', 'a', 'l', 'l', 'Shift', 'o', 'r', 'a', 'n', 'g', 'e', '3', '8', '2', ')', 'Shift', '1', 'Enter', '1', 'B', 'Shift', 'a', 'l', 'l', 'Shift', 'o', 'r', 'n', 'a', 'g', 'e', '3', '8', '2', ')', 'Shift', 'Enter', '1', 'B', 'Shift', 'a', 'l', 'l', 'Shift', 'o', 'r', 'a', 'n', 'g', 'e', '3', '8', '2', ')', 'Shift', '1', 'Enter']","[')', '1', '1', ')', '1', ')', '1']",58.0,0.0,0.0,9.0,12.684,166.586,147.0,57.44,53.018,3.0,294.462,219.965,150.0,282.458,217.316,147.0,301.919,38.671,3,39,67,1Yr01bphWNORcb1H1Tv54d2K6HT2,-MqZ-vuUsNbCHiwvkWKu,1639134249316,True,1,Deutsch,1,0,win32,KeyboardStudy_de,99,1.0
0,0,"['ShiftLeft', 'KeyB', 'KeyA', 'KeyL', 'KeyL', 'ShiftLeft', 'KeyO', 'KeyR', 'KeyA', 'KeyN', 'KeyG', 'KeyE', 'Digit3', 'Digit8', 'Digit2', 'Digit9', 'ShiftLeft', 'Digit1', 'Enter']","['Shift', 'b', 'a', 'l', 'l', 'Shift', 'o', 'r', 'a', 'n', 'g', 'e', '3', '8', '2', ')', 'Shift', '1', 'Enter']","[')', '1']",19.0,0.0,0.0,3.0,7.129,135.737,128.0,38.709,252.778,10.5,873.882,390.389,145.5,862.027,382.889,164.0,885.855,68.088,1,62,66,1Yr01bphWNORcb1H1Tv54d2K6HT2,-MqZDtsuaJdIs1LHM_BU,1639137911018,True,1,Deutsch,1,0,win32,KeyboardStudy_de,99,0.0
0,0,"['ShiftLeft', 'KeyB', 'ShiftLeft', 'KeyA', 'KeyL', 'KeyL', 'ShiftLeft', 'KeyO', 'KeyR', 'KeyA', 'KeyN', 'KeyG', 'KeyE', 'Digit3', 'Digit8', 'Digit2', 'Digit9', 'ShiftLeft', 'Digit1', 'Enter']","['Shift', 'B', 'Shift', 'a', 'l', 'l', 'Shift', 'o', 'r', 'a', 'n', 'g', 'e', '3', '8', '2', ')', 'Shift', '1', 'Enter']","[')', '1']",20.0,0.0,0.0,4.0,10.46,162.0,153.0,51.171,380.0,4.0,1582.237,544.0,160.0,1615.427,534.316,163.0,1595.406,73.451,1,30,62,1Yr01bphWNORcb1H1Tv54d2K6HT2,-MqZRit0LsmQBqi7ZXN7,1639141535963,True,1,Deutsch,1,0,win32,KeyboardStudy_de,99,1.0
0,0,"['ShiftLeft', 'KeyB', 'KeyA', 'KeyL', 'KeyL', 'ShiftLeft', 'KeyR', 'KeyO', 'KeyA', 'KeyN', 'KeyG', 'KeyE', 'Digit3', 'Digit8', 'Digit2', 'Digit9', 'ShiftLeft', 'Digit1', 'Enter', 'ShiftLeft', 'KeyB', 'KeyA', 'KeyL', 'KeyL', 'ShiftLeft', 'ShiftLeft', 'KeyO', 'KeyR', 'KeyA', 'KeyN', 'KeyG', 'KeyE', 'Digit3', 'Digit8', 'Digit2', 'Digit9', 'ShiftLeft', 'Digit1', 'Enter']","['Shift', 'b', 'a', 'l', 'L', 'Shift', 'r', 'o', 'a', 'n', 'g', 'e', '3', '8', '2', ')', 'Shift', '1', 'Enter', 'Shift', 'b', 'a', 'l', 'L', 'Shift', 'Shift', 'o', 'r', 'a', 'n', 'g', 'e', '3', '8', '2', ')', 'Shift', '1', 'Enter']","['L', ')', '1', 'L', ')', '1']",39.0,0.0,0.0,7.0,10.782,153.41,133.0,82.879,126.289,10.0,601.676,281.316,158.5,586.529,278.289,170.5,613.551,53.97,2,62,64,1Yr01bphWNORcb1H1Tv54d2K6HT2,-MqZej4375AvsNxxEmV1,1639145206714,True,1,Deutsch,1,0,win32,KeyboardStudy_de,99,1.0
0,0,"['KeyB', 'ShiftRight', 'KeyA', 'KeyL', 'KeyL', 'KeyO', 'ShiftLeft', 'KeyR', 'KeyA', 'KeyN', 'KeyG', 'KeyE', 'Digit3', 'Digit8', 'Digit2', 'Digit9', 'Digit1', 'ShiftLeft', 'Enter']","['B', 'Shift', 'a', 'l', 'l', 'O', 'Shift', 'r', 'a', 'n', 'g', 'e', '3', '8', '2', '9', '!', 'Shift', 'Enter']",[],19.0,0.0,0.0,3.0,6.841,138.053,92.0,136.453,234.333,96.0,379.748,372.444,239.0,350.957,351.389,177.5,376.244,65.502,1,80,28,2hqyRMz7OQhT0jIqyzQ605A1d7K2,-MplGM3f6I6tlJDKqqgd,1638282916601,True,1,deutsch,1,0,darwin,KeyboardStudy_de,17,0.0
0,0,"['KeyB', 'ShiftRight', 'KeyA', 'KeyL', 'KeyL', 'ShiftLeft', 'KeyO', 'KeyR', 'KeyA', 'KeyN', 'KeyG', 'KeyE', 'Digit3', 'Digit8', 'Digit2', 'Digit9', 'Digit1', 'ShiftLeft', 'Enter']","['B', 'Shift', 'a', 'l', 'l', 'Shift', 'o', 'r', 'a', 'n', 'g', 'e', '3', '8', '2', '9', '!', 'Shift', 'Enter']",[],19.0,0.0,0.0,3.0,6.975,124.211,82.0,111.512,256.389,132.0,349.184,377.722,231.5,315.183,366.556,230.5,327.483,69.333,1,33,32,2hqyRMz7OQhT0jIqyzQ605A1d7K2,-Mpujul1bd6FcLgcdm3D,1638432389824,True,1,deutsch,1,0,darwin,KeyboardStudy_de,17,0.0
0,0,"['KeyB', 'ShiftRight', 'KeyA', 'KeyL', 'KeyL', 'KeyO', 'ShiftRight', 'KeyR', 'KeyA', 'KeyN', 'KeyG', 'KeyE', 'Digit3', 'Digit8', 'Digit2', 'Digit9', 'Digit1', 'ShiftRight', 'Enter']","['B', 'Shift', 'a', 'l', 'l', 'O', 'Shift', 'r', 'a', 'n', 'g', 'e', '3', '8', '2', '9', '!', 'Shift', 'Enter']",[],19.0,0.0,0.0,3.0,6.671,142.105,100.0,109.154,220.611,106.0,337.623,358.944,236.0,293.282,345.944,200.0,324.582,65.447,1,35,41,2hqyRMz7OQhT0jIqyzQ605A1d7K2,-MpujysK6INO3Fv9ZZ7B,1638441938011,True,1,deutsch,1,0,darwin,KeyboardStudy_de,17,0.0
0,0,"['KeyB', 'ShiftLeft', 'KeyA', 'KeyL', 'KeyL', 'KeyO', 'ShiftRight', 'KeyR', 'KeyA', 'KeyN', 'KeyG', 'KeyE', 'Digit3', 'Digit8', 'Digit2', 'Digit9', 'Digit1', 'ShiftLeft', 'Enter']","['B', 'Shift', 'a', 'l', 'l', 'O', 'Shift', 'r', 'a', 'n', 'g', 'e', '3', '8', '2', '9', '!', 'Shift', 'Enter']",[],19.0,0.0,0.0,3.0,8.613,160.684,95.0,176.27,308.889,294.5,370.817,468.111,378.0,299.235,452.056,396.0,353.41,67.537,1,93,13,2hqyRMz7OQhT0jIqyzQ605A1d7K2,-Mpv6tMks6IGQFHB9Cf4,1638448207453,True,1,deutsch,1,0,darwin,KeyboardStudy_de,17,0.0
0,0,"['KeyB', 'ShiftRight', 'KeyA', 'KeyL', 'KeyL', 'ShiftLeft', 'KeyO', 'KeyR', 'KeyA', 'KeyN', 'KeyG', 'KeyE', 'Digit3', 'Digit8', 'Digit2', 'Digit9', 'Digit1', 'ShiftRight', 'Enter', 'KeyB', 'ShiftRight', 'KeyL', 'KeyL', 'KeyO', 'ShiftRight', 'KeyR', 'KeyA', 'KeyN', 'KeyG', 'KeyE', 'Digit3', 'Digit8', 'Digit2', 'Digit9', 'Digit1', 'ShiftRight', 'Enter', 'KeyB', 'ShiftRight', 'KeyA', 'KeyL', 'KeyL', 'KeyO', 'ShiftRight', 'KeyR', 'KeyA', 'KeyN', 'KeyG', 'KeyE', 'Digit3', 'Digit8', 'Digit2', 'Digit9', 'Digit1', 'ShiftRight', 'Enter']","['B', 'Shift', 'a', 'l', 'l', 'Shift', 'o', 'r', 'a', 'n', 'g', 'e', '3', '8', '2', '9', '!', 'Shift', 'Enter', 'B', 'Shift', 'l', 'l', 'O', 'Shift', 'r', 'a', 'n', 'g', 'e', '3', '8', '2', '9', '!', 'Shift', 'Enter', 'B', 'Shift', 'a', 'l', 'l', 'O', 'Shift', 'r', 'a', 'n', 'g', 'e', '3', '8', '2', '9', '!', 'Shift', 'Enter']",[],56.0,0.0,0.0,9.0,25.076,136.304,96.5,121.01,317.145,142.0,599.001,450.8,252.0,572.967,452.873,273.0,625.63,73.114,3,14,70,2hqyRMz7OQhT0jIqyzQ605A1d7K2,-MpvZX1-3refJP0o0Taa,1638455713813,True,1,deutsch,1,0,darwin,KeyboardStudy_de,17,-1.0
0,0,"['KeyB', 'ShiftRight', 'KeyA', 'KeyL', 'KeyL', 'KeyO', 'ShiftRight', 'KeyR', 'KeyA', 'KeyN', 'KeyG', 'KeyE', 'Digit3', 'Digit9', 'Backspace', 'Digit8', 'Digit2', 'Digit9', 'Digit1', 'ShiftRight', 'Enter']","['B', 'Shift', 'a', 'l', 'l', 'O', 'Shift', 'r', 'a', 'n', 'g', 'e', '3', '9', 'Backspace', '8', '2', '9', '!', 'Shift', 'Enter']",[],21.0,1.0,0.0,3.0,7.996,141.048,91.0,135.38,251.7,195.5,329.406,391.85,331.5,282.998,372.3,281.5,326.169,66.583,1,6,74,2hqyRMz7OQhT0jIqyzQ605A1d7K2,-Mpw3-93wxQF06GE_eJ7,1638463963711,True,1,deutsch,1,0,darwin,KeyboardStudy_de,17,1.0
0,0,"['KeyB', 'ShiftRight', 'KeyA', 'KeyL', 'KeyL', 'KeyO', 'ShiftRight', 'KeyR', 'KeyA', 'KeyN', 'KeyG', 'KeyE', 'Digit3', 'Digit8', 'Digit2', 'Digit9', 'ShiftRight', 'Digit1', 'Enter']","['B', 'Shift', 'a', 'l', 'l', 'O', 'Shift', 'r', 'a', 'n', 'g', 'e', '3', '8', '2', '9', 'Shift', '1', 'Enter']",['1'],19.0,0.0,0.0,3.0,6.185,162.158,103.0,177.778,172.444,107.5,295.109,328.111,216.5,278.317,302.722,187.5,279.932,55.667,1,31,50,2hqyRMz7OQhT0jIqyzQ605A1d7K2,-MpwGomklYSvIFLWNQCW,1638467587105,True,1,deutsch,1,0,darwin,KeyboardStudy_de,17,0.0
0,0,"['KeyB', 'ShiftRight', 'KeyA', 'KeyL', 'KeyL', 'KeyO', 'ShiftLeft', 'KeyR', 'KeyA', 'KeyN', 'KeyG', 'KeyE', 'Digit3', 'Digit8', 'Digit2', 'Digit9', 'Digit1', 'ShiftRight', 'Enter']","['B', 'Shift', 'a', 'l', 'l', 'O', 'Shift', 'r', 'a', 'n', 'g', 'e', '3', '8', '2', '9', '!', 'Shift', 'Enter']",[],19.0,0.0,0.0,3.0,4.959,126.684,92.0,88.991,141.778,109.0,245.832,265.111,204.5,204.972,260.167,182.0,226.819,56.927,1,94,72,2hqyRMz7OQhT0jIqyzQ605A1d7K2,-MpzJqE1lni1JlVQD5Hb,1638518711162,True,1,deutsch,1,0,darwin,KeyboardStudy_de,17,0.0
0,0,"['KeyB', 'ShiftLeft', 'KeyA', 'KeyL', 'KeyL', 'ShiftLeft', 'KeyO', 'KeyR', 'KeyA', 'KeyN', 'KeyG', 'KeyE', 'Digit3', 'Digit8', 'Digit2', 'Digit9', 'Digit1', 'ShiftRight', 'Enter']","['B', 'Shift', 'a', 'l', 'l', 'Shift', 'o', 'r', 'a', 'n', 'g', 'e', '3', '8', '2', '9', '!', 'Shift', 'Enter']",[],19.0,0.0,0.0,3.0,4.42,125.316,80.0,110.882,113.278,83.5,176.235,235.889,180.5,124.497,230.111,167.5,165.782,50.611,1,50,66,2hqyRMz7OQhT0jIqyzQ605A1d7K2,-Mpzi6NsBHZL17ybBSLc,1638525334515,True,1,deutsch,1,0,darwin,KeyboardStudy_de,17,0.0
0,0,"['KeyB', 'ShiftRight', 'KeyA', 'KeyL', 'KeyL', 'ShiftLeft', 'KeyO', 'KeyA', 'Backspace', 'KeyR', 'KeyA', 'KeyN', 'KeyG', 'KeyE', 'Digit3', 'Digit8', 'Digit2', 'Digit9', 'Digit1', 'ShiftRight', 'Enter']","['B', 'Shift', 'a', 'l', 'l', 'Shift', 'o', 'a', 'Backspace', 'r', 'a', 'n', 'g', 'e', '3', '8', '2', '9', '!', 'Shift', 'Enter']",[],21.0,1.0,0.0,3.0,5.099,112.714,81.0,69.244,136.6,111.5,177.265,245.2,198.5,148.053,242.35,187.5,172.585,58.443,1,39,68,2hqyRMz7OQhT0jIqyzQ605A1d7K2,-MqBGewuNyoD0j5BgMf6,1638735982102,True,1,deutsch,1,0,darwin,KeyboardStudy_de,17,1.0
0,0,"['KeyB', 'ShiftRight', 'KeyA', 'KeyL', 'KeyL', 'ShiftLeft', 'KeyO', 'KeyR', 'KeyA', 'KeyN', 'KeyG', 'KeyE', 'Digit3', 'Digit8', 'Digit2', 'Digit9', 'Digit1', 'ShiftRight', 'Enter']","['B', 'Shift', 'a', 'l', 'l', 'Shift', 'o', 'r', 'a', 'n', 'g', 'e', '3', '8', '2', '9', '!', 'Shift', 'Enter']",[],19.0,0.0,0.0,3.0,3.862,105.368,83.0,65.352,103.333,103.0,121.762,204.889,183.5,85.013,201.0,189.0,120.524,53.314,1,79,37,2hqyRMz7OQhT0jIqyzQ605A1d7K2,-MqFDgC4uNIdXR39jw7k,1638802309992,True,1,deutsch,1,0,darwin,KeyboardStudy_de,17,0.0
0,0,"['KeyB', 'ShiftLeft', 'KeyA', 'KeyL', 'KeyL', 'KeyO', 'ShiftLeft', 'KeyR', 'KeyA', 'KeyN', 'KeyG', 'KeyE', 'Digit3', 'Digit8', 'Digit2', 'Digit9', 'Digit1', 'ShiftLeft', 'Enter']","['B', 'Shift', 'a', 'l', 'l', 'O', 'Shift', 'r', 'a', 'n', 'g', 'e', '3', '8', '2', '9', '!', 'Shift', 'Enter']",[],19.0,0.0,0.0,3.0,6.513,141.632,64.0,174.156,212.333,233.5,259.376,357.222,323.5,156.368,334.778,311.5,158.972,61.293,1,89,24,2hqyRMz7OQhT0jIqyzQ605A1d7K2,-MqKLxFCwqOzVIHyTVMW,1638888362686,True,1,deutsch,1,0,darwin,KeyboardStudy_de,17,0.0
0,0,"['KeyB', 'ShiftRight', 'KeyA', 'KeyL', 'KeyL', 'KeyO', 'ShiftLeft', 'KeyR', 'KeyA', 'KeyN', 'KeyG', 'KeyE', 'Digit3', 'Digit8', 'Digit2', 'Digit9', 'Digit1', 'ShiftRight', 'Enter']","['B', 'Shift', 'a', 'l', 'l', 'O', 'Shift', 'r', 'a', 'n', 'g', 'e', '3', '8', '2', '9', '!', 'Shift', 'Enter']",[],19.0,0.0,0.0,3.0,5.767,182.158,100.0,264.572,128.111,157.0,152.138,309.111,253.0,217.206,254.056,255.0,147.565,45.743,1,23,5,2hqyRMz7OQhT0jIqyzQ605A1d7K2,-MqKdpDXoh1okP2Y0jmT,1638893310417,True,1,deutsch,1,0,darwin,KeyboardStudy_de,17,0.0
0,0,"['ShiftRight', 'KeyB', 'KeyA', 'KeyL', 'KeyL', 'KeyO', 'ShiftLeft', 'KeyR', 'KeyA', 'KeyN', 'KeyG', 'KeyE', 'Digit3', 'Digit8', 'Digit2', 'Digit9', 'Digit1', 'ShiftRight', 'Enter']","['Shift', 'b', 'a', 'l', 'l', 'O', 'Shift', 'r', 'a', 'n', 'g', 'e', '3', '8', '2', '9', '!', 'Shift', 'Enter']",[],19.0,0.0,0.0,3.0,4.063,126.474,108.0,85.146,92.222,87.5,134.843,215.556,200.5,86.199,209.389,173.5,135.868,47.994,1,38,50,2hqyRMz7OQhT0jIqyzQ605A1d7K2,-MqSvfmPW3MlqjDwsgra,1639032208270,True,1,deutsch,1,0,darwin,KeyboardStudy_de,17,0.0
0,0,"['KeyB', 'ShiftRight', 'KeyA', 'KeyL', 'KeyL', 'KeyO', 'ShiftLeft', 'KeyR', 'KeyA', 'KeyN', 'KeyG', 'KeyE', 'Digit3', 'Digit8', 'Digit2', 'Digit9', 'Digit1', 'ShiftRight', 'Enter']","['B', 'Shift', 'a', 'l', 'l', 'O', 'Shift', 'r', 'a', 'n', 'g', 'e', '3', '8', '2', '9', '!', 'Shift', 'Enter']",[],19.0,0.0,0.0,3.0,4.695,123.211,100.0,70.637,130.778,129.0,183.589,251.556,215.0,147.793,246.722,176.5,191.295,56.741,1,33,33,2hqyRMz7OQhT0jIqyzQ605A1d7K2,-MqT98-Plx9zxNlwW22r,1639035998270,True,1,deutsch,1,0,darwin,KeyboardStudy_de,17,0.0
0,0,"['KeyB', 'ShiftRight', 'KeyA', 'KeyL', 'KeyL', 'ShiftLeft', 'KeyO', 'KeyR', 'KeyA', 'KeyN', 'KeyG', 'KeyE', 'Digit3', 'Digit8', 'Digit2', 'Digit9', 'Digit1', 'ShiftRight', 'Enter']","['B', 'Shift', 'a', 'l', 'l', 'Shift', 'o', 'r', 'a', 'n', 'g', 'e', '3', '8', '2', '9', '!', 'Shift', 'Enter']",[],19.0,0.0,0.0,3.0,3.586,111.105,87.0,69.459,81.944,102.0,117.436,189.389,175.0,74.041,187.444,151.5,126.464,47.881,1,72,38,2hqyRMz7OQhT0jIqyzQ605A1d7K2,-MqToGFsfyEm5kJ_JnFF,1639047041598,True,1,deutsch,1,0,darwin,KeyboardStudy_de,17,0.0
0,0,"['ShiftRight', 'KeyB', 'KeyA', 'KeyL', 'KeyL', 'KeyO', 'ShiftLeft', 'KeyR', 'KeyA', 'KeyG', 'KeyN', 'KeyE', 'Digit3', 'Digit8', 'Digit2', 'Digit9', 'Digit1', 'ShiftRight', 'Enter', 'KeyB', 'ShiftRight', 'KeyA', 'KeyL', 'KeyL', 'KeyO', 'ShiftLeft', 'KeyR', 'KeyA', 'KeyN', 'KeyG', 'KeyE', 'Digit3', 'Digit8', 'Digit2', 'Digit9', 'Digit1', 'ShiftRight', 'Enter']","['Shift', 'b', 'a', 'l', 'l', 'O', 'Shift', 'r', 'a', 'g', 'n', 'e', '3', '8', '2', '9', '!', 'Shift', 'Enter', 'B', 'Shift', 'a', 'l', 'l', 'O', 'Shift', 'r', 'a', 'n', 'g', 'e', '3', '8', '2', '9', '!', 'Shift', 'Enter']",[],38.0,0.0,0.0,6.0,13.213,128.105,93.5,96.825,225.541,108.0,421.646,352.297,240.0,403.578,349.892,223.0,441.032,67.123,2,37,81,2hqyRMz7OQhT0jIqyzQ605A1d7K2,-MqU50X9VgEiHZy8b2Qw,1639051695076,True,1,deutsch,1,0,darwin,KeyboardStudy_de,17,0.0
1,0,"['ShiftLeft', 'KeyB', 'KeyA', 'Backspace', 'Backspace', 'ShiftLeft', 'KeyB', 'KeyA', 'KeyL', 'KeyL', 'ShiftLeft', 'KeyO', 'KeyR', 'KeyA', 'KeyN', 'KeyG', 'KeyE', 'Digit3', 'Digit8', 'Digit2', 'Digit9', 'Digit1', 'ShiftRight', 'Enter']","['Shift', 'b', 'a', 'Backspace', 'Backspace', 'Shift', 'b', 'a', 'l', 'l', 'Shift', 'o', 'r', 'a', 'n', 'g', 'e', '3', '8', '2', '9', '!', 'Shift', 'Enter']",[],24.0,2.0,0.0,4.0,111.031,163.833,143.5,90.777,4656.478,81.0,21179.652,4818.739,240.0,21188.957,4815.957,233.0,21212.35,96.861,1,44,58,38QEQLUDgqQcbPYO8Fm7SFZsDUg2,-Mpj7jRw9_4_Mc4UgdHs,1638247093492,True,2,Korean,0,0,win32,KeyboardStudy_eng,58,3.0
0,1,"['ShiftLeft', 'KeyB', 'KeyA', 'Backspace', 'Backspace', 'Backspace', 'ShiftLeft', 'KeyB', 'KeyA', 'KeyL', 'KeyL', 'ShiftLeft', 'KeyO', 'KeyR', 'KeyA', 'KeyN', 'KeyG', 'KeyE', 'Digit3', 'Digit8', 'Digit2', 'Digit9', 'ShiftRight', 'Digit1', 'Enter']","['Shift', 'b', 'a', 'Backspace', 'Backspace', 'Backspace', 'Shift', 'b', 'a', 'l', 'l', 'Shift', 'o', 'r', 'a', 'n', 'g', 'e', '3', '8', '2', '9', 'Shift', '1', 'Enter']",['1'],25.0,3.0,0.0,4.0,11.823,141.8,135.0,54.604,344.917,80.5,926.729,489.333,200.5,912.152,483.208,211.5,949.961,73.01,1,50,57,38QEQLUDgqQcbPYO8Fm7SFZsDUg2,-MpjLcX-vagCEOjhDxPq,1638250735285,True,2,Korean,0,0,win32,KeyboardStudy_eng,58,3.0
1,0,"['ShiftLeft', 'KeyV', 'KeyA', 'KeyL', 'KeyL', 'ShiftLeft', 'KeyO', 'KeyR', 'KeyA', 'KeyN', 'KeyG', 'KeyE', 'Digit3', 'Digit8', 'Digit2', 'Digit9', 'Digit1', 'ShiftRight', 'Enter', 'ShiftLeft', 'KeyB', 'KeyA', 'KeyL', 'KeyL', 'ShiftLeft', 'KeyO', 'KeyR', 'KeyA', 'KeyN', 'KeyG', 'KeyE', 'Digit3', 'Digit8', 'Digit2', 'Digit9', 'Digit1', 'ShiftRight', 'Enter']","['Shift', 'v', 'a', 'l', 'l', 'Shift', 'o', 'r', 'a', 'n', 'g', 'e', '3', '8', '2', '9', '!', 'Shift', 'Enter', 'Shift', 'b', 'a', 'l', 'l', 'Shift', 'o', 'r', 'a', 'n', 'g', 'e', '3', '8', '2', '9', '!', 'Shift', 'Enter']",['v'],38.0,0.0,0.0,6.0,23.472,163.447,152.0,67.548,466.514,120.0,2021.608,631.378,256.0,2006.221,628.73,256.0,2046.105,76.615,2,53,47,38QEQLUDgqQcbPYO8Fm7SFZsDUg2,-MpjZXwXwGAdUKX99_5i,1638254382572,True,2,Korean,0,0,win32,KeyboardStudy_eng,58,0.0
0,0,"['ShiftLeft', 'KeyB', 'KeyA', 'KeyL', 'KeyL', 'ShiftLeft', 'Digit9', 'KeyO', 'KeyR', 'KeyA', 'KeyN', 'KeyG', 'KeyE', 'Digit3', 'Digit8', 'Digit2', 'Digit9', 'ShiftRight', 'Digit1', 'Enter', 'ShiftLeft', 'KeyB', 'KeyA', 'KeyL', 'KeyL', 'ShiftLeft', 'KeyO', 'KeyR', 'KeyA', 'KeyN', 'KeyG', 'KeyE', 'Digit3', 'Digit8', 'Digit2', 'Digit9', 'Digit1', 'ShiftRight', 'Enter']","['Shift', 'b', 'a', 'l', 'l', 'Shift', '9', 'o', 'r', 'a', 'n', 'g', 'e', '3', '8', '2', '9', 'Shift', '1', 'Enter', 'Shift', 'b', 'a', 'l', 'l', 'Shift', 'o', 'r', 'a', 'n', 'g', 'e', '3', '8', '2', '9', '!', 'Shift', 'Enter']",['1'],39.0,0.0,0.0,6.0,16.399,161.179,152.0,68.231,266.132,88.0,574.071,425.447,225.5,563.186,426.105,220.5,581.256,66.248,2,49,56,38QEQLUDgqQcbPYO8Fm7SFZsDUg2,-MpjmSoQ2wipV4_BbISD,1638258031740,True,2,Korean,0,0,win32,KeyboardStudy_eng,58,1.0
0,1,"['ShiftLeft', 'KeyB', 'KeyA', 'KeyL', 'KeyL', 'ShiftLeft', 'KeyO', 'KeyR', 'KeyA', 'KeyN', 'KeyG', 'KeyE', 'Numpad3', 'Numpad8', 'Numpad2', 'Numpad9', 'Digit1', 'ShiftRight', 'Enter', 'ShiftLeft', 'KeyB', 'KeyA', 'KeyL', 'KeyL', 'ShiftLeft', 'KeyO', 'KeyR', 'KeyA', 'KeyN', 'KeyG', 'KeyE', 'Numpad3', 'Numpad8', 'Numpad2', 'Numpad9', 'Digit1', 'ShiftRight', 'Enter', 'ShiftLeft', 'KeyB', 'KeyA', 'KeyL', 'KeyL', 'ShiftLeft', 'KeyO', 'KeyR', 'KeyA', 'KeyN', 'KeyG', 'KeyE', 'Digit3', 'Digit8', 'Digit2', 'Digit9', 'Digit1', 'ShiftRight', 'Enter']","['Shift', 'b', 'a', 'l', 'l', 'Shift', 'o', 'r', 'a', 'n', 'g', 'e', '3', '8', '2', '9', '!', 'Shift', 'Enter', 'Shift', 'b', 'a', 'l', 'l', 'Shift', 'o', 'r', 'a', 'n', 'g', 'e', '3', '8', '2', '9', '!', 'Shift', 'Enter', 'Shift', 'b', 'a', 'l', 'l', 'Shift', 'o', 'r', 'a', 'n', 'g', 'e', '3', '8', '2', '9', '!', 'Shift', 'Enter']",[],57.0,0.0,8.0,9.0,72.64,174.825,152.0,94.684,1119.196,180.5,5419.773,1292.857,312.0,5415.684,1292.571,300.0,5444.015,87.854,3,50,50,38QEQLUDgqQcbPYO8Fm7SFZsDUg2,-MpnEWVqXfC0gzcmhfol,1638315977708,True,2,Korean,0,0,win32,KeyboardStudy_eng,58,0.0
0,0,"['ShiftLeft', 'KeyB', 'KeyA', 'KeyL', 'KeyL', 'ShiftLeft', 'KeyO', 'KeyR', 'KeyA', 'KeyN', 'KeyG', 'KeyE', 'Digit3', 'Digit8', 'Digit2', 'Digit9', 'Digit1', 'ShiftRight', 'Enter']","['Shift', 'b', 'a', 'l', 'l', 'Shift', 'o', 'r', 'a', 'n', 'g', 'e', '3', '8', '2', '9', '!', 'Shift', 'Enter']",[],19.0,0.0,0.0,3.0,5.567,141.842,120.0,67.493,159.556,88.0,314.297,304.833,196.0,300.478,296.889,185.5,317.812,57.374,1,50,55,38QEQLUDgqQcbPYO8Fm7SFZsDUg2,-MpnkMBTh9X0WdAY3Rkj,1638324586315,True,2,Korean,0,0,win32,KeyboardStudy_eng,58,0.0
1,0,"['ShiftLeft', 'KeyB', 'KeyA', 'KeyL', 'KeyL', 'ShiftLeft', 'KeyO', 'KeyR', 'KeyA', 'KeyN', 'KeyG', 'KeyE', 'Numpad3', 'Numpad8', 'Numpad2', 'Numpad9', 'Digit1', 'ShiftRight', 'Enter', 'ShiftLeft', 'KeyB', 'KeyA', 'KeyL', 'KeyL', 'ShiftLeft', 'KeyO', 'KeyR', 'KeyA', 'KeyN', 'KeyG', 'KeyE', 'Numpad3', 'Numpad8', 'Numpad2', 'Numpad9', 'Digit1', 'ShiftRight', 'Enter', 'ShiftLeft', 'KeyB', 'KeyA', 'KeyL', 'KeyL', 'ShiftLeft', 'KeyO', 'KeyR', 'KeyA', 'KeyN', 'KeyG', 'KeyE', 'Digit3', 'Digit8', 'Digit2', 'Digit9', 'Digit1', 'ShiftRight', 'Enter']","['Shift', 'b', 'a', 'l', 'l', 'Shift', 'o', 'r', 'a', 'n', 'g', 'e', '3', '8', '2', '9', '!', 'Shift', 'Enter', 'Shift', 'b', 'a', 'l', 'l', 'Shift', 'o', 'r', 'a', 'n', 'g', 'e', '3', '8', '2', '9', '!', 'Shift', 'Enter', 'Shift', 'b', 'a', 'l', 'l', 'Shift', 'o', 'r', 'a', 'n', 'g', 'e', '3', '8', '2', '9', '!', 'Shift', 'Enter']",[],57.0,0.0,8.0,9.0,43.82,176.368,152.0,107.915,602.982,252.0,1600.389,779.071,424.0,1594.427,778.5,392.0,1625.593,79.489,3,47,55,38QEQLUDgqQcbPYO8Fm7SFZsDUg2,-MpnycFjVSc0naXOyMDO,1638328326491,True,2,Korean,0,0,win32,KeyboardStudy_eng,58,0.0
2,0,"['ShiftLeft', 'KeyB', 'ShiftLeft', 'KeyB', 'KeyA', 'KeyL', 'KeyL', 'ShiftLeft', 'KeyO', 'KeyR', 'KeyA', 'KeyN', 'KeyG', 'KeyE', 'Digit3', 'Digit8', 'Digit2', 'Digit9', 'Digit1', 'ShiftRight', 'Enter']","['Shift', 'b', 'Shift', 'b', 'a', 'l', 'l', 'Shift', 'o', 'r', 'a', 'n', 'g', 'e', '3', '8', '2', '9', '!', 'Shift', 'Enter']",[],21.0,0.0,0.0,4.0,17.525,192.429,168.0,97.335,674.2,240.5,1427.581,866.4,396.0,1416.259,862.25,382.5,1470.522,80.177,1,44,55,38QEQLUDgqQcbPYO8Fm7SFZsDUg2,-MpoF8hiSFUGsTx3P226,1638332920080,True,2,Korean,0,0,win32,KeyboardStudy_eng,58,2.0
0,0,"['ShiftLeft', 'KeyB', 'KeyA', 'KeyL', 'KeyL', 'ShiftLeft', 'KeyO', 'KeyR', 'KeyA', 'KeyN', 'KeyG', 'KeyE', 'Digit3', 'Digit8', 'Digit2', 'Digit8', 'Digit9', 'Backspace', 'Backspace', 'ShiftLeft', 'KeyB', 'KeyA', 'KeyL', 'KeyL', 'ShiftLeft', 'KeyO', 'KeyR', 'KeyA', 'KeyN', 'KeyG', 'KeyE', 'Digit3', 'Digit8', 'Digit2', 'Digit9', 'Digit1', 'ShiftRight', 'Enter']","['Shift', 'b', 'a', 'l', 'l', 'Shift', 'o', 'r', 'a', 'n', 'g', 'e', '3', '8', '2', '8', '9', 'Backspace', 'Backspace', 'Shift', 'b', 'a', 'l', 'l', 'Shift', 'o', 'r', 'a', 'n', 'g', 'e', '3', '8', '2', '9', '!', 'Shift', 'Enter']",[],38.0,2.0,0.0,5.0,16.039,162.947,128.0,175.115,266.135,112.0,438.986,428.73,240.0,462.796,426.541,240.0,487.665,64.786,1,46,55,38QEQLUDgqQcbPYO8Fm7SFZsDUg2,-MpoTCB2VowgLjyHcKcZ,1638336604500,True,2,Korean,0,0,win32,KeyboardStudy_eng,58,17.0
0,0,"['ShiftLeft', 'KeyB', 'ShiftLeft', 'Backspace', 'Backspace', 'Backspace', 'Backspace', 'ShiftLeft', 'KeyB', 'Backspace', 'Backspace', 'Backspace', 'ShiftLeft', 'KeyB', 'KeyA', 'KeyL', 'KeyL', 'ShiftLeft', 'KeyO', 'KeyR', 'KeyA', 'KeyN', 'KeyG', 'KeyE', 'Digit3', 'Digit8', 'Digit2', 'Digit9', 'ShiftRight', 'Digit1', 'Enter']","['Shift', 'b', 'Shift', 'Backspace', 'Backspace', 'Backspace', 'Backspace', 'Shift', 'b', 'Backspace', 'Backspace', 'Backspace', 'Shift', 'b', 'a', 'l', 'l', 'Shift', 'o', 'r', 'a', 'n', 'g', 'e', '3', '8', '2', '9', 'Shift', '1', 'Enter']",['1'],31.0,7.0,0.0,6.0,61.346,160.613,144.0,81.496,1878.9,98.5,9025.341,2034.233,252.0,9012.629,2037.133,236.5,9043.471,92.823,1,43,56,38QEQLUDgqQcbPYO8Fm7SFZsDUg2,-MpogMADXyLt72Ak7tHl,1638340315493,True,2,Korean,0,0,win32,KeyboardStudy_eng,58,5.0
0,1,"['ShiftLeft', 'KeyB', 'KeyA', 'KeyL', 'KeyL', 'ShiftLeft', 'KeyO', 'KeyR', 'KeyA', 'KeyN', 'KeyG', 'KeyE', 'Digit3', 'Digit9', 'Digit2', 'Backspace', 'Backspace', 'ShiftLeft', 'KeyB', 'KeyA', 'KeyL', 'KeyL', 'ShiftLeft', 'KeyO', 'KeyR', 'KeyA', 'KeyN', 'KeyG', 'KeyE', 'Digit3', 'Digit8', 'Digit2', 'Digit9', 'Digit1', 'ShiftRight', 'Enter']","['Shift', 'b', 'a', 'l', 'l', 'Shift', 'o', 'r', 'a', 'n', 'g', 'e', '3', '9', '2', 'Backspace', 'Backspace', 'Shift', 'b', 'a', 'l', 'l', 'Shift', 'o', 'r', 'a', 'n', 'g', 'e', '3', '8', '2', '9', '!', 'Shift', 'Enter']",[],36.0,2.0,0.0,5.0,14.079,167.444,127.0,174.395,230.029,136.0,293.409,399.057,280.0,319.854,394.714,264.0,337.801,60.416,1,41,58,38QEQLUDgqQcbPYO8Fm7SFZsDUg2,-MpouE07do8Bq77Ckd0_,1638343952222,True,2,Korean,0,0,win32,KeyboardStudy_eng,58,15.0
2,0,"['ShiftLeft', 'KeyB', 'KeyA', 'KeyL', 'KeyL', 'ShiftLeft', 'KeyO', 'KeyR', 'KeyA', 'KeyN', 'KeyG', 'KeyE', 'Digit3', 'Digit8', 'Digit2', 'Digit9', 'Digit1', 'ShiftRight', 'Enter']","['Shift', 'b', 'a', 'l', 'l', 'Shift', 'o', 'r', 'a', 'n', 'g', 'e', '3', '8', '2', '9', '!', 'Shift', 'Enter']",[],19.0,0.0,0.0,3.0,5.655,157.789,152.0,56.84,147.611,95.0,251.193,306.611,236.0,242.179,299.111,253.5,262.447,53.068,1,41,60,38QEQLUDgqQcbPYO8Fm7SFZsDUg2,-Mpp74HDnZBOdLa1eDuh,1638347582446,True,2,Korean,0,0,win32,KeyboardStudy_eng,58,0.0
0,1,"['ShiftLeft', 'KeyB', 'KeyA', 'KeyL', 'KeyL', 'ShiftLeft', 'KeyO', 'KeyR', 'KeyA', 'KeyN', 'KeyG', 'KeyE', 'Backspace', 'Backspace', 'Backspace', 'Backspace', 'Backspace', 'Backspace', 'Backspace', 'Backspace', 'Backspace', 'Backspace', 'Backspace', 'Backspace', 'Backspace', 'Backspace', 'Backspace', 'ShiftLeft', 'KeyB', 'KeyA', 'KeyL', 'KeyL', 'ShiftLeft', 'KeyO', 'KeyR', 'KeyA', 'KeyN', 'KeyG', 'KeyE', 'Digit3', 'Digit8', 'Digit2', 'Digit9', 'Digit1', 'ShiftRight', 'Enter']","['Shift', 'b', 'a', 'l', 'l', 'Shift', 'o', 'r', 'a', 'n', 'g', 'e', 'Backspace', 'Backspace', 'Backspace', 'Backspace', 'Backspace', 'Backspace', 'Backspace', 'Backspace', 'Backspace', 'Backspace', 'Backspace', 'Backspace', 'Backspace', 'Backspace', 'Backspace', 'Shift', 'b', 'a', 'l', 'l', 'Shift', 'o', 'r', 'a', 'n', 'g', 'e', '3', '8', '2', '9', '!', 'Shift', 'Enter']",[],46.0,15.0,0.0,5.0,24.127,140.717,132.0,97.661,392.311,112.0,1300.103,532.956,264.0,1299.108,529.244,248.0,1304.479,76.209,1,41,56,38QEQLUDgqQcbPYO8Fm7SFZsDUg2,-MpsLgtI6BUzFL79NYcW,1638401742878,True,2,Korean,0,0,win32,KeyboardStudy_eng,58,12.0
0,0,"['KeyB', 'Backspace', 'ShiftLeft', 'KeyB', 'KeyA', 'KeyL', 'KeyL', 'ShiftLeft', 'KeyO', 'KeyR', 'KeyA', 'KeyN', 'KeyG', 'KeyE', 'Numpad3', 'Numpad8', 'Numpad2', 'Numpad9', 'Digit1', 'ShiftRight', 'Enter', 'ShiftLeft', 'KeyB', 'KeyA', 'KeyL', 'KeyL', 'ShiftLeft', 'KeyO', 'KeyR', 'KeyA', 'KeyN', 'KeyG', 'KeyE', 'Numpad3', 'Numpad8', 'Numpad2', 'Numpad9', 'Digit1', 'ShiftRight', 'Enter', 'ShiftLeft', 'KeyB', 'KeyA', 'KeyL', 'KeyL', 'ShiftLeft', 'KeyO', 'KeyR', 'KeyA', 'KeyN', 'KeyG', 'KeyE', 'Digit3', 'Digit8', 'Digit2', 'Digit9', 'Digit1', 'ShiftRight', 'Enter']","['b', 'Backspace', 'Shift', 'b', 'a', 'l', 'l', 'Shift', 'o', 'r', 'a', 'n', 'g', 'e', '3', '8', '2', '9', '!', 'Shift', 'Enter', 'Shift', 'b', 'a', 'l', 'l', 'Shift', 'o', 'r', 'a', 'n', 'g', 'e', '3', '8', '2', '9', '!', 'Shift', 'Enter', 'Shift', 'b', 'a', 'l', 'l', 'Shift', 'o', 'r', 'a', 'n', 'g', 'e', '3', '8', '2', '9', '!', 'Shift', 'Enter']",[],59.0,1.0,8.0,9.0,44.587,170.203,144.0,86.786,595.603,174.0,1435.552,766.534,319.5,1444.503,765.172,318.0,1474.825,79.703,3,46,55,38QEQLUDgqQcbPYO8Fm7SFZsDUg2,-Mpsd9L0ZOsd9d33bSTk,1638406582193,True,2,Korean,0,0,win32,KeyboardStudy_eng,58,1.0
0,0,"['NumpadAdd', 'Backspace', 'Backspace', 'Backspace', 'ShiftLeft', 'KeyB', 'KeyA', 'KeyL', 'KeyL', 'ShiftLeft', 'KeyO', 'KeyR', 'KeyA', 'KeyN', 'KeyG', 'KeyE', 'Digit3', 'Digit8', 'Digit2', 'Digit9', 'Digit1', 'ShiftRight', 'Enter']","['+', 'Backspace', 'Backspace', 'Backspace', 'Shift', 'b', 'a', 'l', 'l', 'Shift', 'o', 'r', 'a', 'n', 'g', 'e', '3', '8', '2', '9', '!', 'Shift', 'Enter']",['+'],23.0,3.0,1.0,3.0,14.431,163.609,152.0,88.379,484.909,104.0,1315.372,645.091,240.5,1293.076,651.591,264.0,1348.168,76.738,1,50,56,38QEQLUDgqQcbPYO8Fm7SFZsDUg2,-MpsrbHCH41xqXm3R70x,1638410370895,True,2,Korean,0,0,win32,KeyboardStudy_eng,58,1.0
1,1,"['ShiftLeft', 'KeyB', 'KeyA', 'KeyL', 'KeyL', 'ShiftLeft', 'KeyO', 'Backspace', 'Backspace', 'Backspace', 'Backspace', 'ShiftLeft', 'KeyB', 'Backspace', 'ShiftLeft', 'KeyB', 'Backspace', 'Backspace', 'Backspace', 'ShiftLeft', 'KeyB', 'KeyA', 'KeyL', 'KeyL', 'KeyO', 'ShiftLeft', 'KeyR', 'KeyA', 'KeyN', 'KeyG', 'KeyE', 'Digit3', 'Digit8', 'Digit2', 'Digit9', 'Digit1', 'ShiftRight', 'Enter']","['Shift', 'b', 'a', 'l', 'l', 'Shift', 'o', 'Backspace', 'Backspace', 'Backspace', 'Backspace', 'Shift', 'b', 'Backspace', 'Shift', 'b', 'Backspace', 'Backspace', 'Backspace', 'Shift', 'b', 'a', 'l', 'l', 'O', 'Shift', 'r', 'a', 'n', 'g', 'e', '3', '8', '2', '9', '!', 'Shift', 'Enter']",[],38.0,8.0,0.0,7.0,27.407,213.921,180.0,143.277,521.027,152.0,1041.677,732.73,368.0,1022.665,733.378,360.0,1071.348,74.485,1,50,58,38QEQLUDgqQcbPYO8Fm7SFZsDUg2,-Mpt4Y1tO6eaUZ0ZioAL,1638414023643,True,2,Korean,0,0,win32,KeyboardStudy_eng,58,11.0
0,1,"['ShiftLeft', 'ShiftLeft', 'KeyB', 'KeyA', 'KeyL', 'KeyL', 'ShiftLeft', 'KeyO', 'KeyR', 'KeyA', 'KeyN', 'KeyG', 'KeyE', 'Digit3', 'Digit8', 'Digit2', 'Digit9', 'ShiftRight', 'Digit1', 'Enter']","['Shift', 'Shift', 'b', 'a', 'l', 'l', 'Shift', 'o', 'r', 'a', 'n', 'g', 'e', '3', '8', '2', '9', 'Shift', '1', 'Enter']",['1'],20.0,0.0,0.0,4.0,6.151,212.05,167.0,176.191,100.526,80.0,185.77,310.684,184.0,273.537,275.737,216.0,218.943,39.392,1,46,55,38QEQLUDgqQcbPYO8Fm7SFZsDUg2,-MptR9-PNjtsXlKNCaEe,1638419950506,True,2,Korean,0,0,win32,KeyboardStudy_eng,58,1.0
0,1,"['ShiftLeft', 'KeyB', 'KeyA', 'KeyL', 'KeyL', 'ShiftLeft', 'KeyO', 'KeyR', 'KeyA', 'KeyN', 'KeyG', 'KeyE', 'Digit3', 'Digit8', 'Digit2', 'Digit9', 'Digit1', 'ShiftRight', 'Enter']","['Shift', 'b', 'a', 'l', 'l', 'Shift', 'o', 'r', 'a', 'n', 'g', 'e', '3', '8', '2', '9', '!', 'Shift', 'Enter']",[],19.0,0.0,0.0,3.0,9.623,230.632,161.0,189.52,291.167,280.5,365.331,522.222,456.0,317.883,512.889,460.0,415.845,60.626,1,45,56,38QEQLUDgqQcbPYO8Fm7SFZsDUg2,-MptfUXbDwOMvkDwknUC,1638423971048,True,2,Korean,0,0,win32,KeyboardStudy_eng,58,0.0
1,0,"['ShiftLeft', 'KeyB', 'KeyA', 'KeyL', 'KeyL', 'ShiftLeft', 'KeyO', 'KeyR', 'KeyA', 'KeyN', 'KeyG', 'KeyE', 'Digit3', 'Digit8', 'Digit2', 'Digit9', 'Digit1', 'ShiftRight', 'Enter']","['Shift', 'b', 'a', 'l', 'l', 'Shift', 'o', 'r', 'a', 'n', 'g', 'e', '3', '8', '2', '9', '!', 'Shift', 'Enter']",[],19.0,0.0,0.0,3.0,7.255,171.053,167.0,67.942,222.5,164.0,266.75,391.944,328.0,242.775,387.056,324.0,262.447,59.807,1,43,55,38QEQLUDgqQcbPYO8Fm7SFZsDUg2,-MpttdxmV6sVNWDKalpo,1638427683954,True,2,Korean,0,0,win32,KeyboardStudy_eng,58,0.0
0,1,"['ShiftLeft', 'KeyB', 'KeyA', 'KeyL', 'KeyL', 'ShiftLeft', 'KeyO', 'KeyR', 'KeyA', 'KeyN', 'KeyG', 'KeyE', 'Digit3', 'Digit8', 'Digit2', 'Digit9', 'ShiftRight', 'Digit1', 'Enter']","['Shift', 'b', 'a', 'l', 'l', 'Shift', 'o', 'r', 'a', 'n', 'g', 'e', '3', '8', '2', '9', 'Shift', '1', 'Enter']",['1'],19.0,0.0,0.0,3.0,6.111,169.579,151.0,56.348,160.5,93.0,223.476,324.833,264.0,209.957,327.944,272.5,245.541,52.643,1,39,61,38QEQLUDgqQcbPYO8Fm7SFZsDUg2,-Mpu6lr4q1MRgxi4C0oX,1638431386334,True,2,Korean,0,0,win32,KeyboardStudy_eng,58,0.0
0,1,"['ShiftLeft', 'KeyB', 'KeyA', 'KeyL', 'KeyL', 'ShiftLeft', 'KeyO', 'KeyR', 'KeyA', 'KeyN', 'KeyG', 'KeyE', 'Digit3', 'Digit8', 'Digit2', 'Digit9', 'Digit1', 'ShiftRight', 'Enter']","['Shift', 'b', 'a', 'l', 'l', 'Shift', 'o', 'r', 'a', 'n', 'g', 'e', '3', '8', '2', '9', '!', 'Shift', 'Enter']",[],19.0,0.0,0.0,3.0,7.72,180.632,152.0,82.704,238.222,164.0,270.973,417.778,308.0,239.311,415.111,336.0,292.434,61.554,1,55,45,38QEQLUDgqQcbPYO8Fm7SFZsDUg2,-MpxVvq1aoZ08L1Q-R9L,1638488310407,True,2,Korean,0,0,win32,KeyboardStudy_eng,58,0.0
1,0,"['ShiftLeft', 'KeyB', 'ShiftLeft', 'KeyB', 'KeyA', 'KeyL', 'KeyL', 'ShiftLeft', 'KeyO', 'KeyR', 'KeyA', 'KeyN', 'KeyG', 'KeyE', 'Digit3', 'Digit8', 'Digit2', 'Digit9', 'Digit1', 'ShiftRight', 'Enter']","['Shift', 'b', 'Shift', 'b', 'a', 'l', 'l', 'Shift', 'o', 'r', 'a', 'n', 'g', 'e', '3', '8', '2', '9', '!', 'Shift', 'Enter']",[],21.0,0.0,0.0,4.0,16.032,213.905,168.0,124.758,577.0,156.5,1532.734,787.25,417.0,1519.486,788.4,404.0,1548.628,75.318,1,53,45,38QEQLUDgqQcbPYO8Fm7SFZsDUg2,-MpxiwFSEwGLQqZ_0knz,1638491982204,True,2,Korean,0,0,win32,KeyboardStudy_eng,58,2.0
1,0,"['ShiftLeft', 'KeyB', 'KeyA', 'KeyL', 'KeyL', 'ShiftLeft', 'KeyO', 'KeyR', 'KeyA', 'KeyN', 'KeyG', 'KeyE', 'Digit3', 'Digit8', 'Digit2', 'Digit9', 'Digit1', 'ShiftRight', 'Enter']","['Shift', 'b', 'a', 'l', 'l', 'Shift', 'o', 'r', 'a', 'n', 'g', 'e', '3', '8', '2', '9', '!', 'Shift', 'Enter']",[],19.0,0.0,0.0,3.0,9.72,194.632,169.0,76.076,334.556,136.0,447.263,522.667,340.0,424.024,523.111,359.5,476.35,66.245,1,59,43,38QEQLUDgqQcbPYO8Fm7SFZsDUg2,-Mpxwls-ohmrhnAYznWs,1638495609799,True,2,Korean,0,0,win32,KeyboardStudy_eng,58,0.0
0,3,"['KeyB', 'Backspace', 'ShiftLeft', 'KeyB', 'KeyA', 'KeyL', 'KeyL', 'ShiftLeft', 'KeyO', 'KeyR', 'KeyA', 'KeyN', 'KeyG', 'KeyE', 'Digit3', 'Digit8', 'Digit2', 'Digit9', 'Digit1', 'ShiftRight', 'Enter']","['b', 'Backspace', 'Shift', 'b', 'a', 'l', 'l', 'Shift', 'o', 'r', 'a', 'n', 'g', 'e', '3', '8', '2', '9', '!', 'Shift', 'Enter']",[],21.0,1.0,0.0,3.0,8.657,191.905,160.0,87.665,231.35,146.5,296.028,418.0,316.0,262.821,423.8,326.5,349.169,58.542,1,43,59,38QEQLUDgqQcbPYO8Fm7SFZsDUg2,-Mpy5QY8AG_Zv9E7BuRc,1638498139882,True,2,Korean,0,0,win32,KeyboardStudy_eng,58,1.0
2,0,"['ShiftLeft', 'KeyB', 'Backspace', 'ShiftLeft', 'KeyB', 'KeyA', 'KeyL', 'KeyL', 'ShiftLeft', 'KeyO', 'KeyR', 'KeyA', 'KeyN', 'KeyG', 'KeyE', 'Digit3', 'Digit8', 'Digit2', 'Digit9', 'Digit1', 'ShiftRight', 'Enter']","['Shift', 'b', 'Backspace', 'Shift', 'b', 'a', 'l', 'l', 'Shift', 'o', 'r', 'a', 'n', 'g', 'e', '3', '8', '2', '9', '!', 'Shift', 'Enter']",[],22.0,1.0,0.0,4.0,9.04,189.727,160.0,93.988,231.714,112.0,467.084,411.048,280.0,441.905,417.048,248.0,489.056,59.823,1,54,42,38QEQLUDgqQcbPYO8Fm7SFZsDUg2,-MpyJIJHb_kM6eZjGWNe,1638501776272,True,2,Korean,0,0,win32,KeyboardStudy_eng,58,2.0
2,0,"['ShiftLeft', 'KeyB', 'Backspace', 'ShiftLeft', 'KeyB', 'KeyA', 'KeyL', 'KeyL', 'ShiftLeft', 'KeyO', 'KeyR', 'KeyA', 'KeyN', 'KeyG', 'KeyE', 'Digit3', 'Digit8', 'Digit2', 'Digit9', 'Digit1', 'ShiftRight', 'Enter']","['Shift', 'b', 'Backspace', 'Shift', 'b', 'a', 'l', 'l', 'Shift', 'o', 'r', 'a', 'n', 'g', 'e', '3', '8', '2', '9', '!', 'Shift', 'Enter']",[],22.0,1.0,0.0,4.0,10.637,178.364,163.0,74.747,319.667,172.0,471.491,496.619,321.0,454.775,494.095,320.0,456.821,67.152,1,46,54,38QEQLUDgqQcbPYO8Fm7SFZsDUg2,-MqBynb0TWOaKO2Xa6ua,1638747794426,True,2,Korean,0,0,win32,KeyboardStudy_eng,58,2.0
0,1,"['ShiftLeft', 'KeyB', 'KeyA', 'KeyL', 'KeyL', 'ShiftLeft', 'KeyO', 'KeyR', 'KeyA', 'KeyN', 'KeyG', 'KeyE', 'Digit3', 'Digit9', 'Backspace', 'Digit8', 'Digit2', 'Digit9', 'ShiftRight', 'Digit1', 'Enter']","['Shift', 'b', 'a', 'l', 'l', 'Shift', 'o', 'r', 'a', 'n', 'g', 'e', '3', '9', 'Backspace', '8', '2', '9', 'Shift', '1', 'Enter']",['1'],21.0,1.0,0.0,3.0,5.944,135.286,129.0,50.72,155.15,116.5,204.584,294.4,232.0,183.128,287.2,228.5,210.635,58.126,1,45,57,38QEQLUDgqQcbPYO8Fm7SFZsDUg2,-MqCCfQXa8KM6RrqqfjT,1638751693206,True,2,Korean,0,0,win32,KeyboardStudy_eng,58,1.0
0,0,"['ShiftLeft', 'KeyB', 'KeyA', 'KeyL', 'KeyL', 'ShiftLeft', 'KeyO', 'KeyR', 'KeyA', 'KeyN', 'KeyG', 'KeyE', 'Digit3', 'Digit8', 'Digit2', 'Digit9', 'Digit1', 'ShiftRight', 'Enter']","['Shift', 'b', 'a', 'l', 'l', 'Shift', 'o', 'r', 'a', 'n', 'g', 'e', '3', '8', '2', '9', '!', 'Shift', 'Enter']",[],19.0,0.0,0.0,3.0,8.987,168.421,152.0,92.03,321.5,168.5,419.6,496.889,312.5,403.158,478.833,267.5,440.646,68.733,1,46,58,38QEQLUDgqQcbPYO8Fm7SFZsDUg2,-MqCQZzPgsLjOig1n8c3,1638755337069,True,2,Korean,0,0,win32,KeyboardStudy_eng,58,0.0
2,0,"['ShiftLeft', 'ShiftLeft', 'KeyB', 'Backspace', 'ShiftLeft', 'KeyB', 'KeyA', 'KeyL', 'KeyL', 'ShiftLeft', 'KeyO', 'KeyR', 'KeyA', 'KeyN', 'KeyG', 'KeyE', 'Digit3', 'Digit8', 'Digit2', 'Digit9', 'ShiftRight', 'Digit1', 'Enter']","['Shift', 'Shift', 'b', 'Backspace', 'Shift', 'b', 'a', 'l', 'l', 'Shift', 'o', 'r', 'a', 'n', 'g', 'e', '3', '8', '2', '9', 'Shift', '1', 'Enter']",['1'],23.0,1.0,0.0,5.0,8.168,175.652,135.0,122.565,187.636,120.5,289.969,367.273,244.0,314.582,340.364,228.0,308.627,56.342,1,43,56,38QEQLUDgqQcbPYO8Fm7SFZsDUg2,-MqCdPx71mezYeWK1MbF,1638758966029,True,2,Korean,0,0,win32,KeyboardStudy_eng,58,3.0
0,0,"['KeyB', 'Backspace', 'ShiftLeft', 'KeyB', 'KeyA', 'KeyL', 'KeyL', 'ShiftLeft', 'KeyO', 'KeyR', 'KeyA', 'KeyN', 'KeyG', 'KeyE', 'Digit3', 'Digit8', 'Digit2', 'Digit9', 'Digit1', 'ShiftRight', 'Enter']","['b', 'Backspace', 'Shift', 'b', 'a', 'l', 'l', 'Shift', 'o', 'r', 'a', 'n', 'g', 'e', '3', '8', '2', '9', '!', 'Shift', 'Enter']",[],21.0,1.0,0.0,3.0,8.679,157.286,144.0,61.371,268.8,120.0,368.421,429.55,284.0,354.754,428.0,320.0,375.493,65.906,1,44,59,38QEQLUDgqQcbPYO8Fm7SFZsDUg2,-MqCrUYBLjxiRmR8ycdj,1638762654931,True,2,Korean,0,0,win32,KeyboardStudy_eng,58,1.0
2,0,"['ShiftLeft', 'KeyB', 'Backspace', 'ShiftLeft', 'KeyB', 'KeyA', 'KeyL', 'KeyL', 'ShiftLeft', 'KeyO', 'KeyR', 'KeyA', 'KeyN', 'KeyG', 'KeyE', 'Digit3', 'Digit8', 'Digit2', 'Digit9', 'ShiftRight', 'Digit1', 'Enter']","['Shift', 'b', 'Backspace', 'Shift', 'b', 'a', 'l', 'l', 'Shift', 'o', 'r', 'a', 'n', 'g', 'e', '3', '8', '2', '9', 'Shift', '1', 'Enter']",['1'],22.0,1.0,0.0,4.0,8.711,158.5,152.0,49.436,248.762,112.0,467.459,409.476,248.0,459.652,400.762,256.0,477.516,64.826,1,45,54,38QEQLUDgqQcbPYO8Fm7SFZsDUg2,-MqD4Ywxc_QkTr-5GYs7,1638766343075,True,2,Korean,0,0,win32,KeyboardStudy_eng,58,2.0
0,1,"['ShiftLeft', 'KeyB', 'KeyA', 'KeyL', 'KeyL', 'ShiftLeft', 'KeyO', 'KeyR', 'KeyA', 'KeyN', 'Backspace', 'Backspace', 'ShiftLeft', 'KeyB', 'KeyA', 'KeyL', 'KeyL', 'ShiftLeft', 'KeyO', 'KeyR', 'KeyA', 'KeyN', 'KeyG', 'KeyE', 'Digit3', 'Digit8', 'Digit2', 'Digit9', 'ShiftRight', 'Digit1', 'Enter']","['Shift', 'b', 'a', 'l', 'l', 'Shift', 'o', 'r', 'a', 'n', 'Backspace', 'Backspace', 'Shift', 'b', 'a', 'l', 'l', 'Shift', 'o', 'r', 'a', 'n', 'g', 'e', '3', '8', '2', '9', 'Shift', '1', 'Enter']",['1'],31.0,2.0,0.0,5.0,8.896,166.419,136.0,131.171,124.567,96.5,198.729,294.433,236.0,226.886,286.4,256.0,246.0,48.303,1,41,57,38QEQLUDgqQcbPYO8Fm7SFZsDUg2,-MqDIPq_VNs0boGNVFj_,1638769975946,True,2,Korean,0,0,win32,KeyboardStudy_eng,58,10.0
1,0,"['ShiftLeft', 'KeyB', 'ShiftLeft', 'KeyB', 'Backspace', 'Backspace', 'ShiftLeft', 'KeyB', 'KeyA', 'KeyL', 'KeyL', 'ShiftLeft', 'KeyO', 'KeyR', 'KeyA', 'KeyN', 'KeyG', 'KeyE', 'Digit3', 'Digit8', 'Digit2', 'Digit9', 'Digit1', 'ShiftRight', 'Enter']","['Shift', 'b', 'Shift', 'b', 'Backspace', 'Backspace', 'Shift', 'b', 'a', 'l', 'l', 'Shift', 'o', 'r', 'a', 'n', 'g', 'e', '3', '8', '2', '9', '!', 'Shift', 'Enter']",[],25.0,2.0,0.0,5.0,8.485,173.52,152.0,81.821,172.792,100.0,269.127,341.542,276.0,238.322,345.625,244.0,296.066,56.511,1,44,56,38QEQLUDgqQcbPYO8Fm7SFZsDUg2,-MqDWFUthcBuV14qvkI1,1638773603666,True,2,Korean,0,0,win32,KeyboardStudy_eng,58,4.0
2,0,"['ShiftLeft', 'KeyB', 'Backspace', 'ShiftLeft', 'KeyB', 'KeyA', 'KeyL', 'KeyL', 'ShiftLeft', 'KeyO', 'KeyR', 'KeyA', 'KeyN', 'KeyG', 'KeyE', 'Digit3', 'Digit8', 'Digit2', 'Digit9', 'ShiftRight', 'Digit1', 'Enter']","['Shift', 'b', 'Backspace', 'Shift', 'b', 'a', 'l', 'l', 'Shift', 'o', 'r', 'a', 'n', 'g', 'e', '3', '8', '2', '9', 'Shift', '1', 'Enter']",['1'],22.0,1.0,0.0,4.0,8.728,145.091,136.0,52.413,263.619,84.0,650.055,412.381,232.0,643.803,406.095,216.0,651.083,67.942,1,40,58,38QEQLUDgqQcbPYO8Fm7SFZsDUg2,-MqDj5LWI-tJCt12n9ZS,1638777232199,True,2,Korean,0,0,win32,KeyboardStudy_eng,58,2.0
1,0,"['ShiftLeft', 'KeyB', 'ShiftLeft', 'KeyB', 'KeyA', 'KeyL', 'KeyL', 'ShiftLeft', 'KeyO', 'KeyR', 'KeyA', 'KeyN', 'KeyG', 'KeyE', 'Digit3', 'Digit8', 'Digit2', 'Digit9', 'Digit1', 'ShiftRight', 'Enter', 'ShiftLeft', 'KeyB', 'KeyA', 'KeyL', 'KeyL', 'ShiftLeft', 'KeyO', 'KeyR', 'KeyA', 'KeyN', 'KeyG', 'KeyE', 'Digit3', 'Digit8', 'Digit2', 'Digit9', 'Digit1', 'ShiftRight', 'Enter']","['Shift', 'b', 'Shift', 'b', 'a', 'l', 'l', 'Shift', 'o', 'r', 'a', 'n', 'g', 'e', '3', '8', '2', '9', '!', 'Shift', 'Enter', 'Shift', 'b', 'a', 'l', 'l', 'Shift', 'o', 'r', 'a', 'n', 'g', 'e', '3', '8', '2', '9', '!', 'Shift', 'Enter']",[],40.0,0.0,0.0,7.0,18.44,174.425,152.0,87.887,293.923,136.0,525.232,466.667,304.0,506.042,466.872,272.0,549.777,67.153,2,41,57,38QEQLUDgqQcbPYO8Fm7SFZsDUg2,-MqH8Lkevab-6pPpZLnZ,1638834444212,True,2,Korean,0,0,win32,KeyboardStudy_eng,58,2.0
0,0,"['ShiftLeft', 'KeyB', 'KeyA', 'KeyL', 'KeyL', 'ShiftLeft', 'KeyO', 'KeyR', 'KeyA', 'KeyN', 'KeyG', 'KeyE', 'Digit3', 'Digit8', 'Digit2', 'Digit9', 'Digit1', 'ShiftRight', 'Enter']","['Shift', 'b', 'a', 'l', 'l', 'Shift', 'o', 'r', 'a', 'n', 'g', 'e', '3', '8', '2', '9', '!', 'Shift', 'Enter']",[],19.0,0.0,0.0,3.0,9.72,169.684,144.0,82.959,360.889,256.0,428.586,532.889,400.0,398.264,523.111,384.0,438.423,70.947,1,43,56,38QEQLUDgqQcbPYO8Fm7SFZsDUg2,-MqHNAGxd5to29PUQ4gj,1638838329443,True,2,Korean,0,0,win32,KeyboardStudy_eng,58,0.0
